onset	duration	trial_type	expected_response	given_response	response_time
 0.000	 1.995	instruction	0	0	 0.000
 1.995	 1.995	filler	0	0	 0.000
 3.990	 0.532	fixation_cross	0	0	 0.000
 4.522	 0.798	pres	1	0	 2147483.647
 5.320	 1.529	resp	0	0	 0.000
 6.849	 1.131	jitter	0	0	 0.000
 7.980	 0.532	fixation_cross	0	0	 0.000
 8.512	 0.798	pres	1	0	 2147483.647
 9.310	 1.529	resp	0	0	 0.000
 10.839	 1.131	jitter	0	0	 0.000
 11.970	 0.532	fixation_cross	0	0	 0.000
 12.502	 0.798	pres	1	0	 2147483.647
 13.300	 1.530	resp	0	0	 0.000
 14.830	 1.130	jitter	0	0	 0.000
 15.960	 0.532	fixation_cross	0	0	 0.000
 16.492	 0.798	pres	1	0	 2147483.647
 17.290	 1.529	resp	0	0	 0.000
 18.819	 0.931	jitter	0	0	 0.000
 19.750	 0.533	fixation_cross	0	0	 0.000
 20.283	 0.798	pres	1	0	 2147483.647
 21.081	 1.529	resp	0	0	 0.000
 22.610	 1.263	jitter	0	0	 0.000
 23.873	 0.532	fixation_cross	0	0	 0.000
 24.405	 0.798	pres	1	0	 2147483.647
 25.203	 1.530	resp	0	0	 0.000
 26.733	 1.264	jitter	0	0	 0.000
 27.997	 0.531	fixation_cross	0	0	 0.000
 28.528	 0.798	pres	1	0	 2147483.647
 29.326	 1.530	resp	0	0	 0.000
 30.856	 1.263	jitter	0	0	 0.000
 32.119	 0.533	fixation_cross	0	0	 0.000
 32.652	 0.798	pres	1	0	 2147483.647
 33.450	 1.529	resp	0	0	 0.000
 34.979	 1.463	jitter	0	0	 0.000
 36.442	 0.532	fixation_cross	0	0	 0.000
 36.974	 0.798	pres	1	0	 2147483.647
 37.772	 1.529	resp	0	0	 0.000
 39.301	 0.931	jitter	0	0	 0.000
 40.232	 0.532	fixation_cross	0	0	 0.000
 40.764	 0.798	pres	1	0	 2147483.647
 41.562	 1.530	resp	0	0	 0.000
 43.092	 1.263	jitter	0	0	 0.000
 44.355	 0.532	fixation_cross	0	0	 0.000
 44.887	 0.798	pres	1	0	 2147483.647
 45.685	 1.530	resp	0	0	 0.000
 47.215	 1.463	jitter	0	0	 0.000
 48.678	 0.532	fixation_cross	0	0	 0.000
 49.210	 0.798	pres	1	0	 2147483.647
 50.008	 1.529	resp	0	0	 0.000
 51.537	 1.064	jitter	0	0	 0.000
 52.601	 0.532	fixation_cross	0	0	 0.000
 53.133	 0.798	pres	1	0	 2147483.647
 53.931	 1.530	resp	0	0	 0.000
 55.461	 1.463	jitter	0	0	 0.000
 56.924	 0.532	fixation_cross	0	0	 0.000
 57.456	 0.798	pres	1	0	 2147483.647
 58.254	 1.529	resp	0	0	 0.000
 59.783	 1.330	jitter	0	0	 0.000
 61.113	 0.532	fixation_cross	0	0	 0.000
 61.645	 0.798	pres	1	0	 2147483.647
 62.443	 1.530	resp	0	0	 0.000
 63.973	 1.463	jitter	0	0	 0.000
 65.436	 0.532	fixation_cross	0	0	 0.000
 65.968	 0.798	pres	1	0	 2147483.647
 66.766	 1.529	resp	0	0	 0.000
 68.295	 1.064	jitter	0	0	 0.000
 69.359	 0.532	fixation_cross	0	0	 0.000
 69.891	 0.798	pres	1	0	 2147483.647
 70.689	 1.530	resp	0	0	 0.000
 72.219	 1.263	jitter	0	0	 0.000
 73.482	 0.532	fixation_cross	0	0	 0.000
 74.014	 0.798	pres	1	0	 2147483.647
 74.812	 1.529	resp	0	0	 0.000
 76.341	 1.331	jitter	0	0	 0.000
 77.672	 0.532	fixation_cross	0	0	 0.000
 78.204	 0.798	pres	1	0	 2147483.647
 79.002	 1.529	resp	0	0	 0.000
 80.531	 0.931	jitter	0	0	 0.000
 81.462	 0.532	fixation_cross	0	0	 0.000
 81.994	 0.798	pres	1	0	 2147483.647
 82.792	 1.530	resp	0	0	 0.000
 84.322	 0.931	jitter	0	0	 0.000
 85.253	 0.531	fixation_cross	0	0	 0.000
 85.784	 0.798	pres	1	0	 2147483.647
 86.582	 1.530	resp	0	0	 0.000
 88.112	 1.064	jitter	0	0	 0.000
 89.176	 0.532	fixation_cross	0	0	 0.000
 89.708	 0.798	pres	1	0	 2147483.647
 90.506	 1.530	resp	0	0	 0.000
 92.036	 1.263	jitter	0	0	 0.000
 93.299	 0.532	fixation_cross	0	0	 0.000
 93.831	 0.798	pres	1	0	 2147483.647
 94.629	 1.530	resp	0	0	 0.000
 96.159	 1.329	jitter	0	0	 0.000
 97.488	 0.532	fixation_cross	0	0	 0.000
 98.020	 0.798	pres	1	0	 2147483.647
 98.818	 1.530	resp	0	0	 0.000
 100.348	 1.463	jitter	0	0	 0.000
 101.811	 0.532	fixation_cross	0	0	 0.000
 102.343	 0.798	pres	1	0	 2147483.647
 103.141	 1.530	resp	0	0	 0.000
 104.671	 1.130	jitter	0	0	 0.000
 105.801	 0.532	fixation_cross	0	0	 0.000
 106.333	 0.798	pres	1	0	 2147483.647
 107.131	 1.530	resp	0	0	 0.000
 108.661	 0.930	jitter	0	0	 0.000
 109.591	 0.533	fixation_cross	0	0	 0.000
 110.124	 0.798	pres	1	0	 2147483.647
 110.922	 1.529	resp	0	0	 0.000
 112.451	 0.931	jitter	0	0	 0.000
 113.382	 0.532	fixation_cross	0	0	 0.000
 113.914	 0.798	pres	1	0	 2147483.647
 114.712	 1.530	resp	0	0	 0.000
 116.242	 1.329	jitter	0	0	 0.000
 117.571	 0.532	fixation_cross	0	0	 0.000
 118.103	 0.798	pres	1	0	 2147483.647
 118.901	 1.530	resp	0	0	 0.000
 120.431	 1.064	jitter	0	0	 0.000
 121.495	 0.532	fixation_cross	0	0	 0.000
 122.027	 0.798	pres	1	0	 2147483.647
 122.825	 1.529	resp	0	0	 0.000
 124.354	 1.331	jitter	0	0	 0.000
 125.685	 0.532	fixation_cross	0	0	 0.000
 126.217	 0.798	pres	1	0	 2147483.647
 127.015	 1.529	resp	0	0	 0.000
 128.544	 1.463	jitter	0	0	 0.000
 130.007	 0.532	fixation_cross	0	0	 0.000
 130.539	 0.798	pres	1	0	 2147483.647
 131.337	 1.529	resp	0	0	 0.000
 132.866	 0.931	jitter	0	0	 0.000
 133.797	 0.532	fixation_cross	0	0	 0.000
 134.329	 0.798	pres	1	0	 2147483.647
 135.127	 1.530	resp	0	0	 0.000
 136.657	 1.264	jitter	0	0	 0.000
 137.921	 0.531	fixation_cross	0	0	 0.000
 138.452	 0.798	pres	1	0	 2147483.647
 139.250	 1.530	resp	0	0	 0.000
 140.780	 1.330	jitter	0	0	 0.000
 142.110	 0.532	fixation_cross	0	0	 0.000
 142.642	 0.798	pres	1	0	 2147483.647
 143.440	 1.530	resp	0	0	 0.000
 144.970	 1.330	jitter	0	0	 0.000
 146.300	 0.531	fixation_cross	0	0	 0.000
 146.831	 0.798	pres	1	0	 2147483.647
 147.629	 1.530	resp	0	0	 0.000
 149.159	 0.931	jitter	0	0	 0.000
 150.090	 0.532	fixation_cross	0	0	 0.000
 150.622	 0.798	pres	1	0	 2147483.647
 151.420	 1.529	resp	0	0	 0.000
 152.949	 1.131	jitter	0	0	 0.000
 154.080	 0.532	fixation_cross	0	0	 0.000
 154.612	 0.798	pres	1	0	 2147483.647
 155.410	 1.529	resp	0	0	 0.000
 156.939	 1.264	jitter	0	0	 0.000
 158.203	 0.532	fixation_cross	0	0	 0.000
 158.735	 0.798	pres	1	0	 2147483.647
 159.533	 1.529	resp	0	0	 0.000
 161.062	 1.463	jitter	0	0	 0.000
 162.525	 0.532	fixation_cross	0	0	 0.000
 163.057	 0.798	pres	1	0	 2147483.647
 163.855	 1.530	resp	0	0	 0.000
 165.385	 1.064	jitter	0	0	 0.000
 166.449	 0.532	fixation_cross	0	0	 0.000
 166.981	 0.798	pres	1	0	 2147483.647
 167.779	 1.529	resp	0	0	 0.000
 169.308	 1.065	jitter	0	0	 0.000
 170.373	 0.531	fixation_cross	0	0	 0.000
 170.904	 0.798	pres	1	0	 2147483.647
 171.702	 1.530	resp	0	0	 0.000
 173.232	 1.463	jitter	0	0	 0.000
 174.695	 0.532	fixation_cross	0	0	 0.000
 175.227	 0.798	pres	1	0	 2147483.647
 176.025	 1.529	resp	0	0	 0.000
 177.554	 1.131	jitter	0	0	 0.000
 178.685	 0.532	fixation_cross	0	0	 0.000
 179.217	 0.798	pres	1	0	 2147483.647
 180.015	 1.529	resp	0	0	 0.000
 181.544	 1.264	jitter	0	0	 0.000
 182.808	 0.532	fixation_cross	0	0	 0.000
 183.340	 0.798	pres	1	0	 2147483.647
 184.138	 1.529	resp	0	0	 0.000
 185.667	 1.065	jitter	0	0	 0.000
 186.732	 0.531	fixation_cross	0	0	 0.000
 187.263	 0.799	pres	1	0	 2147483.647
 188.062	 1.529	resp	0	0	 0.000
 189.591	 1.330	jitter	0	0	 0.000
 190.921	 0.532	fixation_cross	0	0	 0.000
 191.453	 0.798	pres	1	0	 2147483.647
 192.251	 1.529	resp	0	0	 0.000
 193.780	 1.064	jitter	0	0	 0.000
 194.844	 0.532	fixation_cross	0	0	 0.000
 195.376	 0.798	pres	1	0	 2147483.647
 196.174	 1.530	resp	0	0	 0.000
 197.704	 1.130	jitter	0	0	 0.000
 198.834	 0.532	fixation_cross	0	0	 0.000
 199.366	 0.798	pres	1	0	 2147483.647
 200.164	 1.530	resp	0	0	 0.000
 201.694	 1.130	jitter	0	0	 0.000
 202.824	 0.532	fixation_cross	0	0	 0.000
 203.356	 0.798	pres	1	0	 2147483.647
 204.154	 1.530	resp	0	0	 0.000
 205.684	 1.463	jitter	0	0	 0.000
 207.147	 0.532	fixation_cross	0	0	 0.000
 207.679	 0.798	pres	1	0	 2147483.647
 208.477	 1.529	resp	0	0	 0.000
 210.006	 1.131	jitter	0	0	 0.000
 211.137	 0.532	fixation_cross	0	0	 0.000
 211.669	 0.798	pres	1	0	 2147483.647
 212.467	 1.529	resp	0	0	 0.000
 213.996	 0.931	jitter	0	0	 0.000
 214.927	 0.532	fixation_cross	0	0	 0.000
 215.459	 0.798	pres	1	0	 2147483.647
 216.257	 1.530	resp	0	0	 0.000
 217.787	 1.063	jitter	0	0	 0.000
 218.850	 0.533	fixation_cross	0	0	 0.000
 219.383	 0.798	pres	1	0	 2147483.647
 220.181	 1.529	resp	0	0	 0.000
 221.710	 1.463	jitter	0	0	 0.000
 223.173	 0.532	fixation_cross	0	0	 0.000
 223.705	 0.798	pres	1	0	 2147483.647
 224.503	 1.530	resp	0	0	 0.000
 226.033	 1.064	jitter	0	0	 0.000
 227.097	 0.532	fixation_cross	0	0	 0.000
 227.629	 0.798	pres	1	0	 2147483.647
 228.427	 1.529	resp	0	0	 0.000
 229.956	 1.330	jitter	0	0	 0.000
 231.286	 0.532	fixation_cross	0	0	 0.000
 231.818	 0.798	pres	1	0	 2147483.647
 232.616	 1.530	resp	0	0	 0.000
 234.146	 1.330	jitter	0	0	 0.000
 235.476	 0.532	fixation_cross	0	0	 0.000
 236.008	 0.798	pres	1	0	 2147483.647
 236.806	 1.529	resp	0	0	 0.000
 238.335	 1.131	jitter	0	0	 0.000
 239.466	 0.532	fixation_cross	0	0	 0.000
 239.998	 0.798	pres	1	0	 2147483.647
 240.796	 1.529	resp	0	0	 0.000
 242.325	 0.931	jitter	0	0	 0.000
 243.256	 0.532	fixation_cross	0	0	 0.000
 243.788	 0.798	pres	1	0	 2147483.647
 244.586	 1.530	resp	0	0	 0.000
 246.116	 1.329	jitter	0	0	 0.000
 247.445	 0.533	fixation_cross	0	0	 0.000
 247.978	 0.798	pres	1	0	 2147483.647
 248.776	 1.529	resp	0	0	 0.000
 250.305	 1.131	jitter	0	0	 0.000
 251.436	 0.532	fixation_cross	0	0	 0.000
 251.968	 0.798	pres	1	0	 2147483.647
 252.766	 1.529	resp	0	0	 0.000
 254.295	 1.330	jitter	0	0	 0.000
 255.625	 0.532	fixation_cross	0	0	 0.000
 256.157	 0.798	pres	1	0	 2147483.647
 256.955	 1.530	resp	0	0	 0.000
 258.485	 1.263	jitter	0	0	 0.000
 259.748	 0.532	fixation_cross	0	0	 0.000
 260.280	 0.798	pres	1	0	 2147483.647
 261.078	 1.530	resp	0	0	 0.000
 262.608	 1.063	jitter	0	0	 0.000
 263.671	 0.533	fixation_cross	0	0	 0.000
 264.204	 0.798	pres	1	0	 2147483.647
 265.002	 1.529	resp	0	0	 0.000
 266.531	 1.131	jitter	0	0	 0.000
 267.662	 0.532	fixation_cross	0	0	 0.000
 268.194	 0.798	pres	1	0	 2147483.647
 268.992	 1.529	resp	0	0	 0.000
 270.521	 1.064	jitter	0	0	 0.000
 271.585	 0.532	fixation_cross	0	0	 0.000
 272.117	 0.798	pres	1	0	 2147483.647
 272.915	 1.529	resp	0	0	 0.000
 274.444	 1.331	jitter	0	0	 0.000
 275.775	 0.532	fixation_cross	0	0	 0.000
 276.307	 0.798	pres	1	0	 2147483.647
 277.105	 1.529	resp	0	0	 0.000
 278.634	 1.263	jitter	0	0	 0.000
 279.897	 0.533	fixation_cross	0	0	 0.000
 280.430	 0.798	pres	1	0	 2147483.647
 281.228	 1.529	resp	0	0	 0.000
 282.757	 1.463	jitter	0	0	 0.000
 284.220	 0.532	fixation_cross	0	0	 0.000
 284.752	 0.798	pres	1	0	 2147483.647
 285.550	 1.530	resp	0	0	 0.000
 287.080	 1.130	jitter	0	0	 0.000
 288.210	 0.532	fixation_cross	0	0	 0.000
 288.742	 0.798	pres	1	0	 2147483.647
 289.540	 1.530	resp	0	0	 0.000
 291.070	 1.130	jitter	0	0	 0.000
 292.200	 0.532	fixation_cross	0	0	 0.000
 292.732	 0.798	pres	1	0	 2147483.647
 293.530	 1.530	resp	0	0	 0.000
 295.060	 1.130	jitter	0	0	 0.000
 296.190	 0.532	fixation_cross	0	0	 0.000
 296.722	 0.798	pres	1	0	 2147483.647
 297.520	 1.530	resp	0	0	 0.000
 299.050	 1.263	jitter	0	0	 0.000
 300.313	 0.532	fixation_cross	0	0	 0.000
 300.845	 0.798	pres	1	0	 2147483.647
 301.643	 1.529	resp	0	0	 0.000
 303.172	 1.065	jitter	0	0	 0.000
 304.237	 0.531	fixation_cross	0	0	 0.000
 304.768	 0.798	pres	1	0	 2147483.647
 305.566	 1.530	resp	0	0	 0.000
 307.096	 1.463	jitter	0	0	 0.000
 308.559	 0.532	fixation_cross	0	0	 0.000
 309.091	 0.798	pres	1	0	 2147483.647
 309.889	 1.530	resp	0	0	 0.000
 311.419	 1.263	jitter	0	0	 0.000
 312.682	 0.532	fixation_cross	0	0	 0.000
 313.214	 0.798	pres	1	0	 2147483.647
 314.012	 1.529	resp	0	0	 0.000
 315.541	 1.331	jitter	0	0	 0.000
 316.872	 0.532	fixation_cross	0	0	 0.000
 317.404	 0.798	pres	1	0	 2147483.647
 318.202	 1.529	resp	0	0	 0.000
 319.731	 1.463	jitter	0	0	 0.000
 321.194	 0.532	fixation_cross	0	0	 0.000
 321.726	 0.798	pres	1	0	 2147483.647
 322.524	 1.529	resp	0	0	 0.000
 324.053	 1.065	jitter	0	0	 0.000
 325.118	 0.531	fixation_cross	0	0	 0.000
 325.649	 0.798	pres	1	0	 2147483.647
 326.447	 1.530	resp	0	0	 0.000
 327.977	 0.931	jitter	0	0	 0.000
 328.908	 0.532	fixation_cross	0	0	 0.000
 329.440	 0.798	pres	1	0	 2147483.647
 330.238	 1.529	resp	0	0	 0.000
 331.767	 1.264	jitter	0	0	 0.000
 333.031	 0.532	fixation_cross	0	0	 0.000
 333.563	 0.798	pres	1	0	 2147483.647
 334.361	 1.529	resp	0	0	 0.000
 335.890	 0.932	jitter	0	0	 0.000
 336.822	 0.531	fixation_cross	0	0	 0.000
 337.353	 0.799	pres	1	0	 2147483.647
 338.152	 1.529	resp	0	0	 0.000
 339.681	 0.931	jitter	0	0	 0.000
 340.612	 0.532	fixation_cross	0	0	 0.000
 341.144	 0.798	pres	1	0	 2147483.647
 341.942	 1.529	resp	0	0	 0.000
 343.471	 0.931	jitter	0	0	 0.000
 344.402	 0.532	fixation_cross	0	0	 0.000
 344.934	 0.798	pres	1	0	 2147483.647
 345.732	 1.530	resp	0	0	 0.000
 347.262	 1.330	jitter	0	0	 0.000
 348.592	 0.532	fixation_cross	0	0	 0.000
 349.124	 0.798	pres	1	0	 2147483.647
 349.922	 1.530	resp	0	0	 0.000
 351.452	 1.462	jitter	0	0	 0.000
 352.914	 0.532	fixation_cross	0	0	 0.000
 353.446	 0.798	pres	1	0	 2147483.647
 354.244	 1.530	resp	0	0	 0.000
 355.774	 0.931	jitter	0	0	 0.000
 356.705	 0.532	fixation_cross	0	0	 0.000
 357.237	 0.798	pres	1	0	 2147483.647
 358.035	 1.529	resp	0	0	 0.000
 359.564	 1.264	jitter	0	0	 0.000
 360.828	 0.532	fixation_cross	0	0	 0.000
 361.360	 0.798	pres	1	0	 2147483.647
 362.158	 1.529	resp	0	0	 0.000
 363.687	 1.065	jitter	0	0	 0.000
 364.752	 0.531	fixation_cross	0	0	 0.000
 365.283	 0.798	pres	1	0	 2147483.647
 366.081	 1.530	resp	0	0	 0.000
 367.611	 11.438	jitter	0	0	 0.000
