onset	duration	trial_type	expected_response	given_response	response_time
 0.000	 1.995	instruction	0	0	 0.000
 1.995	 1.995	filler	0	0	 0.000
 3.990	 0.533	fixation_cross	0	0	 0.000
 4.523	 0.797	pres	1	0	 2147483.647
 5.320	 1.530	resp	0	0	 0.000
 6.850	 0.931	jitter	0	0	 0.000
 7.781	 0.532	fixation_cross	0	0	 0.000
 8.313	 0.798	pres	1	0	 2147483.647
 9.111	 1.529	resp	0	0	 0.000
 10.640	 1.463	jitter	0	0	 0.000
 12.103	 0.532	fixation_cross	0	0	 0.000
 12.635	 0.798	pres	1	0	 2147483.647
 13.433	 1.530	resp	0	0	 0.000
 14.963	 0.931	jitter	0	0	 0.000
 15.894	 0.532	fixation_cross	0	0	 0.000
 16.426	 0.798	pres	1	0	 2147483.647
 17.224	 1.529	resp	0	0	 0.000
 18.753	 1.330	jitter	0	0	 0.000
 20.083	 0.532	fixation_cross	0	0	 0.000
 20.615	 0.798	pres	1	0	 2147483.647
 21.413	 1.530	resp	0	0	 0.000
 22.943	 1.330	jitter	0	0	 0.000
 24.273	 0.532	fixation_cross	0	0	 0.000
 24.805	 0.798	pres	1	0	 2147483.647
 25.603	 1.529	resp	0	0	 0.000
 27.132	 1.064	jitter	0	0	 0.000
 28.196	 0.532	fixation_cross	0	0	 0.000
 28.728	 0.798	pres	1	0	 2147483.647
 29.526	 1.530	resp	0	0	 0.000
 31.056	 0.931	jitter	0	0	 0.000
 31.987	 0.532	fixation_cross	0	0	 0.000
 32.519	 0.798	pres	1	0	 2147483.647
 33.317	 1.529	resp	0	0	 0.000
 34.846	 0.931	jitter	0	0	 0.000
 35.777	 0.532	fixation_cross	0	0	 0.000
 36.309	 0.798	pres	1	0	 2147483.647
 37.107	 1.530	resp	0	0	 0.000
 38.637	 1.063	jitter	0	0	 0.000
 39.700	 0.533	fixation_cross	0	0	 0.000
 40.233	 0.798	pres	1	0	 2147483.647
 41.031	 1.529	resp	0	0	 0.000
 42.560	 1.264	jitter	0	0	 0.000
 43.824	 0.531	fixation_cross	0	0	 0.000
 44.355	 0.799	pres	1	0	 2147483.647
 45.154	 1.529	resp	0	0	 0.000
 46.683	 1.330	jitter	0	0	 0.000
 48.013	 0.532	fixation_cross	0	0	 0.000
 48.545	 0.798	pres	1	0	 2147483.647
 49.343	 1.530	resp	0	0	 0.000
 50.873	 1.064	jitter	0	0	 0.000
 51.937	 0.532	fixation_cross	0	0	 0.000
 52.469	 0.798	pres	1	0	 2147483.647
 53.267	 1.529	resp	0	0	 0.000
 54.796	 1.064	jitter	0	0	 0.000
 55.860	 0.532	fixation_cross	0	0	 0.000
 56.392	 0.798	pres	1	0	 2147483.647
 57.190	 1.530	resp	0	0	 0.000
 58.720	 1.263	jitter	0	0	 0.000
 59.983	 0.532	fixation_cross	0	0	 0.000
 60.515	 0.798	pres	1	0	 2147483.647
 61.313	 1.529	resp	0	0	 0.000
 62.842	 1.331	jitter	0	0	 0.000
 64.173	 0.532	fixation_cross	0	0	 0.000
 64.705	 0.798	pres	1	0	 2147483.647
 65.503	 1.529	resp	0	0	 0.000
 67.032	 1.463	jitter	0	0	 0.000
 68.495	 0.532	fixation_cross	0	0	 0.000
 69.027	 0.798	pres	1	0	 2147483.647
 69.825	 1.529	resp	0	0	 0.000
 71.354	 1.131	jitter	0	0	 0.000
 72.485	 0.532	fixation_cross	0	0	 0.000
 73.017	 0.798	pres	1	0	 2147483.647
 73.815	 1.529	resp	0	0	 0.000
 75.344	 1.463	jitter	0	0	 0.000
 76.807	 0.533	fixation_cross	0	0	 0.000
 77.340	 0.798	pres	1	0	 2147483.647
 78.138	 1.529	resp	0	0	 0.000
 79.667	 1.463	jitter	0	0	 0.000
 81.130	 0.532	fixation_cross	0	0	 0.000
 81.662	 0.798	pres	1	0	 2147483.647
 82.460	 1.530	resp	0	0	 0.000
 83.990	 1.329	jitter	0	0	 0.000
 85.319	 0.533	fixation_cross	0	0	 0.000
 85.852	 0.798	pres	1	0	 2147483.647
 86.650	 1.529	resp	0	0	 0.000
 88.179	 1.463	jitter	0	0	 0.000
 89.642	 0.532	fixation_cross	0	0	 0.000
 90.174	 0.798	pres	1	0	 2147483.647
 90.972	 1.530	resp	0	0	 0.000
 92.502	 1.462	jitter	0	0	 0.000
 93.964	 0.533	fixation_cross	0	0	 0.000
 94.497	 0.797	pres	1	0	 2147483.647
 95.294	 1.530	resp	0	0	 0.000
 96.824	 1.064	jitter	0	0	 0.000
 97.888	 0.532	fixation_cross	0	0	 0.000
 98.420	 0.798	pres	1	0	 2147483.647
 99.218	 1.529	resp	0	0	 0.000
 100.747	 1.264	jitter	0	0	 0.000
 102.011	 0.532	fixation_cross	0	0	 0.000
 102.543	 0.798	pres	1	0	 2147483.647
 103.341	 1.529	resp	0	0	 0.000
 104.870	 1.463	jitter	0	0	 0.000
 106.333	 0.532	fixation_cross	0	0	 0.000
 106.865	 0.798	pres	1	0	 2147483.647
 107.663	 1.530	resp	0	0	 0.000
 109.193	 0.931	jitter	0	0	 0.000
 110.124	 0.532	fixation_cross	0	0	 0.000
 110.656	 0.798	pres	1	0	 2147483.647
 111.454	 1.530	resp	0	0	 0.000
 112.984	 1.130	jitter	0	0	 0.000
 114.114	 0.532	fixation_cross	0	0	 0.000
 114.646	 0.798	pres	1	0	 2147483.647
 115.444	 1.529	resp	0	0	 0.000
 116.973	 1.065	jitter	0	0	 0.000
 118.038	 0.531	fixation_cross	0	0	 0.000
 118.569	 0.798	pres	1	0	 2147483.647
 119.367	 1.530	resp	0	0	 0.000
 120.897	 1.463	jitter	0	0	 0.000
 122.360	 0.532	fixation_cross	0	0	 0.000
 122.892	 0.798	pres	1	0	 2147483.647
 123.690	 1.530	resp	0	0	 0.000
 125.220	 1.130	jitter	0	0	 0.000
 126.350	 0.532	fixation_cross	0	0	 0.000
 126.882	 0.798	pres	1	0	 2147483.647
 127.680	 1.530	resp	0	0	 0.000
 129.210	 1.263	jitter	0	0	 0.000
 130.473	 0.532	fixation_cross	0	0	 0.000
 131.005	 0.798	pres	1	0	 2147483.647
 131.803	 1.529	resp	0	0	 0.000
 133.332	 1.131	jitter	0	0	 0.000
 134.463	 0.532	fixation_cross	0	0	 0.000
 134.995	 0.798	pres	1	0	 2147483.647
 135.793	 1.529	resp	0	0	 0.000
 137.322	 1.131	jitter	0	0	 0.000
 138.453	 0.532	fixation_cross	0	0	 0.000
 138.985	 0.798	pres	1	0	 2147483.647
 139.783	 1.529	resp	0	0	 0.000
 141.312	 1.131	jitter	0	0	 0.000
 142.443	 0.532	fixation_cross	0	0	 0.000
 142.975	 0.798	pres	1	0	 2147483.647
 143.773	 1.530	resp	0	0	 0.000
 145.303	 1.263	jitter	0	0	 0.000
 146.566	 0.532	fixation_cross	0	0	 0.000
 147.098	 0.798	pres	1	0	 2147483.647
 147.896	 1.529	resp	0	0	 0.000
 149.425	 0.931	jitter	0	0	 0.000
 150.356	 0.532	fixation_cross	0	0	 0.000
 150.888	 0.798	pres	1	0	 2147483.647
 151.686	 1.530	resp	0	0	 0.000
 153.216	 1.330	jitter	0	0	 0.000
 154.546	 0.532	fixation_cross	0	0	 0.000
 155.078	 0.798	pres	1	0	 2147483.647
 155.876	 1.529	resp	0	0	 0.000
 157.405	 1.131	jitter	0	0	 0.000
 158.536	 0.532	fixation_cross	0	0	 0.000
 159.068	 0.798	pres	1	0	 2147483.647
 159.866	 1.529	resp	0	0	 0.000
 161.395	 1.330	jitter	0	0	 0.000
 162.725	 0.532	fixation_cross	0	0	 0.000
 163.257	 0.798	pres	1	0	 2147483.647
 164.055	 1.530	resp	0	0	 0.000
 165.585	 1.130	jitter	0	0	 0.000
 166.715	 0.532	fixation_cross	0	0	 0.000
 167.247	 0.798	pres	1	0	 2147483.647
 168.045	 1.530	resp	0	0	 0.000
 169.575	 1.263	jitter	0	0	 0.000
 170.838	 0.532	fixation_cross	0	0	 0.000
 171.370	 0.798	pres	1	0	 2147483.647
 172.168	 1.530	resp	0	0	 0.000
 173.698	 1.263	jitter	0	0	 0.000
 174.961	 0.532	fixation_cross	0	0	 0.000
 175.493	 0.799	pres	1	0	 2147483.647
 176.292	 1.529	resp	0	0	 0.000
 177.821	 1.130	jitter	0	0	 0.000
 178.951	 0.532	fixation_cross	0	0	 0.000
 179.483	 0.798	pres	1	0	 2147483.647
 180.281	 1.530	resp	0	0	 0.000
 181.811	 0.931	jitter	0	0	 0.000
 182.742	 0.532	fixation_cross	0	0	 0.000
 183.274	 0.798	pres	1	0	 2147483.647
 184.072	 1.529	resp	0	0	 0.000
 185.601	 1.064	jitter	0	0	 0.000
 186.665	 0.532	fixation_cross	0	0	 0.000
 187.197	 0.798	pres	1	0	 2147483.647
 187.995	 1.530	resp	0	0	 0.000
 189.525	 1.463	jitter	0	0	 0.000
 190.988	 0.532	fixation_cross	0	0	 0.000
 191.520	 0.798	pres	1	0	 2147483.647
 192.318	 1.529	resp	0	0	 0.000
 193.847	 1.330	jitter	0	0	 0.000
 195.177	 0.532	fixation_cross	0	0	 0.000
 195.709	 0.798	pres	1	0	 2147483.647
 196.507	 1.530	resp	0	0	 0.000
 198.037	 1.330	jitter	0	0	 0.000
 199.367	 0.532	fixation_cross	0	0	 0.000
 199.899	 0.798	pres	1	0	 2147483.647
 200.697	 1.529	resp	0	0	 0.000
 202.226	 1.463	jitter	0	0	 0.000
 203.689	 0.532	fixation_cross	0	0	 0.000
 204.221	 0.798	pres	1	0	 2147483.647
 205.019	 1.530	resp	0	0	 0.000
 206.549	 0.931	jitter	0	0	 0.000
 207.480	 0.532	fixation_cross	0	0	 0.000
 208.012	 0.798	pres	1	0	 2147483.647
 208.810	 1.529	resp	0	0	 0.000
 210.339	 0.931	jitter	0	0	 0.000
 211.270	 0.532	fixation_cross	0	0	 0.000
 211.802	 0.798	pres	1	0	 2147483.647
 212.600	 1.530	resp	0	0	 0.000
 214.130	 1.330	jitter	0	0	 0.000
 215.460	 0.532	fixation_cross	0	0	 0.000
 215.992	 0.798	pres	1	0	 2147483.647
 216.790	 1.529	resp	0	0	 0.000
 218.319	 1.330	jitter	0	0	 0.000
 219.649	 0.532	fixation_cross	0	0	 0.000
 220.181	 0.798	pres	1	0	 2147483.647
 220.979	 1.530	resp	0	0	 0.000
 222.509	 1.130	jitter	0	0	 0.000
 223.639	 0.532	fixation_cross	0	0	 0.000
 224.171	 0.798	pres	1	0	 2147483.647
 224.969	 1.530	resp	0	0	 0.000
 226.499	 1.263	jitter	0	0	 0.000
 227.762	 0.532	fixation_cross	0	0	 0.000
 228.294	 0.798	pres	1	0	 2147483.647
 229.092	 1.530	resp	0	0	 0.000
 230.622	 1.064	jitter	0	0	 0.000
 231.686	 0.532	fixation_cross	0	0	 0.000
 232.218	 0.798	pres	1	0	 2147483.647
 233.016	 1.529	resp	0	0	 0.000
 234.545	 1.064	jitter	0	0	 0.000
 235.609	 0.532	fixation_cross	0	0	 0.000
 236.141	 0.798	pres	1	0	 2147483.647
 236.939	 1.530	resp	0	0	 0.000
 238.469	 1.130	jitter	0	0	 0.000
 239.599	 0.532	fixation_cross	0	0	 0.000
 240.131	 0.798	pres	1	0	 2147483.647
 240.929	 1.529	resp	0	0	 0.000
 242.458	 1.264	jitter	0	0	 0.000
 243.722	 0.532	fixation_cross	0	0	 0.000
 244.254	 0.798	pres	1	0	 2147483.647
 245.052	 1.530	resp	0	0	 0.000
 246.582	 0.931	jitter	0	0	 0.000
 247.513	 0.532	fixation_cross	0	0	 0.000
 248.045	 0.798	pres	1	0	 2147483.647
 248.843	 1.529	resp	0	0	 0.000
 250.372	 1.131	jitter	0	0	 0.000
 251.503	 0.532	fixation_cross	0	0	 0.000
 252.035	 0.798	pres	1	0	 2147483.647
 252.833	 1.529	resp	0	0	 0.000
 254.362	 1.263	jitter	0	0	 0.000
 255.625	 0.533	fixation_cross	0	0	 0.000
 256.158	 0.798	pres	1	0	 2147483.647
 256.956	 1.529	resp	0	0	 0.000
 258.485	 0.931	jitter	0	0	 0.000
 259.416	 0.532	fixation_cross	0	0	 0.000
 259.948	 0.798	pres	1	0	 2147483.647
 260.746	 1.530	resp	0	0	 0.000
 262.276	 1.463	jitter	0	0	 0.000
 263.739	 0.532	fixation_cross	0	0	 0.000
 264.271	 0.798	pres	1	0	 2147483.647
 265.069	 1.529	resp	0	0	 0.000
 266.598	 1.463	jitter	0	0	 0.000
 268.061	 0.532	fixation_cross	0	0	 0.000
 268.593	 0.798	pres	1	0	 2147483.647
 269.391	 1.530	resp	0	0	 0.000
 270.921	 1.263	jitter	0	0	 0.000
 272.184	 0.532	fixation_cross	0	0	 0.000
 272.716	 0.798	pres	1	0	 2147483.647
 273.514	 1.529	resp	0	0	 0.000
 275.043	 1.131	jitter	0	0	 0.000
 276.174	 0.532	fixation_cross	0	0	 0.000
 276.706	 0.798	pres	1	0	 2147483.647
 277.504	 1.529	resp	0	0	 0.000
 279.033	 1.065	jitter	0	0	 0.000
 280.098	 0.532	fixation_cross	0	0	 0.000
 280.630	 0.798	pres	1	0	 2147483.647
 281.428	 1.529	resp	0	0	 0.000
 282.957	 1.064	jitter	0	0	 0.000
 284.021	 0.532	fixation_cross	0	0	 0.000
 284.553	 0.798	pres	1	0	 2147483.647
 285.351	 1.530	resp	0	0	 0.000
 286.881	 1.463	jitter	0	0	 0.000
 288.344	 0.531	fixation_cross	0	0	 0.000
 288.875	 0.798	pres	1	0	 2147483.647
 289.673	 1.530	resp	0	0	 0.000
 291.203	 0.931	jitter	0	0	 0.000
 292.134	 0.532	fixation_cross	0	0	 0.000
 292.666	 0.798	pres	1	0	 2147483.647
 293.464	 1.529	resp	0	0	 0.000
 294.993	 1.331	jitter	0	0	 0.000
 296.324	 0.532	fixation_cross	0	0	 0.000
 296.856	 0.797	pres	1	0	 2147483.647
 297.653	 1.530	resp	0	0	 0.000
 299.183	 1.131	jitter	0	0	 0.000
 300.314	 0.532	fixation_cross	0	0	 0.000
 300.846	 0.798	pres	1	0	 2147483.647
 301.644	 1.529	resp	0	0	 0.000
 303.173	 1.263	jitter	0	0	 0.000
 304.436	 0.532	fixation_cross	0	0	 0.000
 304.968	 0.798	pres	1	0	 2147483.647
 305.766	 1.530	resp	0	0	 0.000
 307.296	 1.330	jitter	0	0	 0.000
 308.626	 0.532	fixation_cross	0	0	 0.000
 309.158	 0.798	pres	1	0	 2147483.647
 309.956	 1.529	resp	0	0	 0.000
 311.485	 1.264	jitter	0	0	 0.000
 312.749	 0.532	fixation_cross	0	0	 0.000
 313.281	 0.798	pres	1	0	 2147483.647
 314.079	 1.530	resp	0	0	 0.000
 315.609	 1.063	jitter	0	0	 0.000
 316.672	 0.533	fixation_cross	0	0	 0.000
 317.205	 0.798	pres	1	0	 2147483.647
 318.003	 1.529	resp	0	0	 0.000
 319.532	 1.064	jitter	0	0	 0.000
 320.596	 0.532	fixation_cross	0	0	 0.000
 321.128	 0.798	pres	1	0	 2147483.647
 321.926	 1.530	resp	0	0	 0.000
 323.456	 1.263	jitter	0	0	 0.000
 324.719	 0.532	fixation_cross	0	0	 0.000
 325.251	 0.798	pres	1	0	 2147483.647
 326.049	 1.529	resp	0	0	 0.000
 327.578	 1.463	jitter	0	0	 0.000
 329.041	 0.533	fixation_cross	0	0	 0.000
 329.574	 0.798	pres	1	0	 2147483.647
 330.372	 1.529	resp	0	0	 0.000
 331.901	 1.263	jitter	0	0	 0.000
 333.164	 0.532	fixation_cross	0	0	 0.000
 333.696	 0.798	pres	1	0	 2147483.647
 334.494	 1.530	resp	0	0	 0.000
 336.024	 1.064	jitter	0	0	 0.000
 337.088	 0.532	fixation_cross	0	0	 0.000
 337.620	 0.798	pres	1	0	 2147483.647
 338.418	 1.529	resp	0	0	 0.000
 339.947	 1.330	jitter	0	0	 0.000
 341.277	 0.532	fixation_cross	0	0	 0.000
 341.809	 0.798	pres	1	0	 2147483.647
 342.607	 1.530	resp	0	0	 0.000
 344.137	 1.064	jitter	0	0	 0.000
 345.201	 0.532	fixation_cross	0	0	 0.000
 345.733	 0.798	pres	1	0	 2147483.647
 346.531	 1.529	resp	0	0	 0.000
 348.060	 1.463	jitter	0	0	 0.000
 349.523	 0.532	fixation_cross	0	0	 0.000
 350.055	 0.798	pres	1	0	 2147483.647
 350.853	 1.530	resp	0	0	 0.000
 352.383	 0.931	jitter	0	0	 0.000
 353.314	 0.532	fixation_cross	0	0	 0.000
 353.846	 0.798	pres	1	0	 2147483.647
 354.644	 1.529	resp	0	0	 0.000
 356.173	 1.131	jitter	0	0	 0.000
 357.304	 0.532	fixation_cross	0	0	 0.000
 357.836	 0.798	pres	1	0	 2147483.647
 358.634	 1.529	resp	0	0	 0.000
 360.163	 0.931	jitter	0	0	 0.000
 361.094	 0.532	fixation_cross	0	0	 0.000
 361.626	 0.798	pres	1	0	 2147483.647
 362.424	 1.530	resp	0	0	 0.000
 363.954	 0.931	jitter	0	0	 0.000
 364.885	 0.532	fixation_cross	0	0	 0.000
 365.417	 0.798	pres	1	0	 2147483.647
 366.215	 1.529	resp	0	0	 0.000
 367.744	 11.970	jitter	0	0	 0.000
