onset	duration	trial_type	expected_response	given_response	response_time
 0.000	 1.996	instruction	0	0	 0.000
 1.996	 1.994	filler	0	0	 0.000
 3.990	 0.532	fixation_cross	0	0	 0.000
 4.522	 0.798	pres	1	0	 2147483.647
 5.320	 1.530	resp	0	0	 0.000
 6.850	 1.130	jitter	0	0	 0.000
 7.980	 0.532	fixation_cross	0	0	 0.000
 8.512	 0.798	pres	1	0	 2147483.647
 9.310	 1.530	resp	0	0	 0.000
 10.840	 1.463	jitter	0	0	 0.000
 12.303	 0.532	fixation_cross	0	0	 0.000
 12.835	 0.798	pres	1	0	 2147483.647
 13.633	 1.530	resp	0	0	 0.000
 15.163	 1.063	jitter	0	0	 0.000
 16.226	 0.533	fixation_cross	0	0	 0.000
 16.759	 0.798	pres	1	0	 2147483.647
 17.557	 1.529	resp	0	0	 0.000
 19.086	 1.263	jitter	0	0	 0.000
 20.349	 0.532	fixation_cross	0	0	 0.000
 20.881	 0.798	pres	1	0	 2147483.647
 21.679	 1.530	resp	0	0	 0.000
 23.209	 1.264	jitter	0	0	 0.000
 24.473	 0.531	fixation_cross	0	0	 0.000
 25.004	 0.798	pres	1	0	 2147483.647
 25.802	 1.530	resp	0	0	 0.000
 27.332	 1.463	jitter	0	0	 0.000
 28.795	 0.532	fixation_cross	0	0	 0.000
 29.327	 0.798	pres	1	0	 2147483.647
 30.125	 1.529	resp	0	0	 0.000
 31.654	 1.064	jitter	0	0	 0.000
 32.718	 0.532	fixation_cross	0	0	 0.000
 33.250	 0.798	pres	1	0	 2147483.647
 34.048	 1.530	resp	0	0	 0.000
 35.578	 1.264	jitter	0	0	 0.000
 36.842	 0.531	fixation_cross	0	0	 0.000
 37.373	 0.798	pres	1	0	 2147483.647
 38.171	 1.530	resp	0	0	 0.000
 39.701	 0.931	jitter	0	0	 0.000
 40.632	 0.532	fixation_cross	0	0	 0.000
 41.164	 0.798	pres	1	0	 2147483.647
 41.962	 1.529	resp	0	0	 0.000
 43.491	 1.463	jitter	0	0	 0.000
 44.954	 0.532	fixation_cross	0	0	 0.000
 45.486	 0.798	pres	1	0	 2147483.647
 46.284	 1.530	resp	0	0	 0.000
 47.814	 1.330	jitter	0	0	 0.000
 49.144	 0.532	fixation_cross	0	0	 0.000
 49.676	 0.798	pres	1	0	 2147483.647
 50.474	 1.529	resp	0	0	 0.000
 52.003	 1.065	jitter	0	0	 0.000
 53.068	 0.531	fixation_cross	0	0	 0.000
 53.599	 0.799	pres	1	0	 2147483.647
 54.398	 1.529	resp	0	0	 0.000
 55.927	 0.931	jitter	0	0	 0.000
 56.858	 0.532	fixation_cross	0	0	 0.000
 57.390	 0.798	pres	1	0	 2147483.647
 58.188	 1.529	resp	0	0	 0.000
 59.717	 1.330	jitter	0	0	 0.000
 61.047	 0.533	fixation_cross	0	0	 0.000
 61.580	 0.798	pres	1	0	 2147483.647
 62.378	 1.529	resp	0	0	 0.000
 63.907	 1.463	jitter	0	0	 0.000
 65.370	 0.532	fixation_cross	0	0	 0.000
 65.902	 0.798	pres	1	0	 2147483.647
 66.700	 1.529	resp	0	0	 0.000
 68.229	 1.330	jitter	0	0	 0.000
 69.559	 0.533	fixation_cross	0	0	 0.000
 70.092	 0.798	pres	1	0	 2147483.647
 70.890	 1.529	resp	0	0	 0.000
 72.419	 1.130	jitter	0	0	 0.000
 73.549	 0.532	fixation_cross	0	0	 0.000
 74.081	 0.798	pres	1	0	 2147483.647
 74.879	 1.530	resp	0	0	 0.000
 76.409	 1.064	jitter	0	0	 0.000
 77.473	 0.532	fixation_cross	0	0	 0.000
 78.005	 0.798	pres	1	0	 2147483.647
 78.803	 1.529	resp	0	0	 0.000
 80.332	 1.463	jitter	0	0	 0.000
 81.795	 0.533	fixation_cross	0	0	 0.000
 82.328	 0.797	pres	1	0	 2147483.647
 83.125	 1.530	resp	0	0	 0.000
 84.655	 1.330	jitter	0	0	 0.000
 85.985	 0.532	fixation_cross	0	0	 0.000
 86.517	 0.798	pres	1	0	 2147483.647
 87.315	 1.529	resp	0	0	 0.000
 88.844	 1.131	jitter	0	0	 0.000
 89.975	 0.532	fixation_cross	0	0	 0.000
 90.507	 0.798	pres	1	0	 2147483.647
 91.305	 1.529	resp	0	0	 0.000
 92.834	 0.931	jitter	0	0	 0.000
 93.765	 0.532	fixation_cross	0	0	 0.000
 94.297	 0.798	pres	1	0	 2147483.647
 95.095	 1.530	resp	0	0	 0.000
 96.625	 1.064	jitter	0	0	 0.000
 97.689	 0.532	fixation_cross	0	0	 0.000
 98.221	 0.798	pres	1	0	 2147483.647
 99.019	 1.529	resp	0	0	 0.000
 100.548	 1.131	jitter	0	0	 0.000
 101.679	 0.532	fixation_cross	0	0	 0.000
 102.211	 0.798	pres	1	0	 2147483.647
 103.009	 1.529	resp	0	0	 0.000
 104.538	 1.264	jitter	0	0	 0.000
 105.802	 0.532	fixation_cross	0	0	 0.000
 106.334	 0.798	pres	1	0	 2147483.647
 107.132	 1.529	resp	0	0	 0.000
 108.661	 1.463	jitter	0	0	 0.000
 110.124	 0.532	fixation_cross	0	0	 0.000
 110.656	 0.798	pres	1	0	 2147483.647
 111.454	 1.530	resp	0	0	 0.000
 112.984	 1.263	jitter	0	0	 0.000
 114.247	 0.533	fixation_cross	0	0	 0.000
 114.780	 0.797	pres	1	0	 2147483.647
 115.577	 1.530	resp	0	0	 0.000
 117.107	 0.931	jitter	0	0	 0.000
 118.038	 0.532	fixation_cross	0	0	 0.000
 118.570	 0.798	pres	1	0	 2147483.647
 119.368	 1.529	resp	0	0	 0.000
 120.897	 1.131	jitter	0	0	 0.000
 122.028	 0.532	fixation_cross	0	0	 0.000
 122.560	 0.798	pres	1	0	 2147483.647
 123.358	 1.529	resp	0	0	 0.000
 124.887	 1.131	jitter	0	0	 0.000
 126.018	 0.532	fixation_cross	0	0	 0.000
 126.550	 0.798	pres	1	0	 2147483.647
 127.348	 1.529	resp	0	0	 0.000
 128.877	 0.931	jitter	0	0	 0.000
 129.808	 0.532	fixation_cross	0	0	 0.000
 130.340	 0.798	pres	1	0	 2147483.647
 131.138	 1.530	resp	0	0	 0.000
 132.668	 1.130	jitter	0	0	 0.000
 133.798	 0.532	fixation_cross	0	0	 0.000
 134.330	 0.798	pres	1	0	 2147483.647
 135.128	 1.530	resp	0	0	 0.000
 136.658	 1.263	jitter	0	0	 0.000
 137.921	 0.532	fixation_cross	0	0	 0.000
 138.453	 0.798	pres	1	0	 2147483.647
 139.251	 1.530	resp	0	0	 0.000
 140.781	 1.463	jitter	0	0	 0.000
 142.244	 0.532	fixation_cross	0	0	 0.000
 142.776	 0.798	pres	1	0	 2147483.647
 143.574	 1.529	resp	0	0	 0.000
 145.103	 1.330	jitter	0	0	 0.000
 146.433	 0.532	fixation_cross	0	0	 0.000
 146.965	 0.798	pres	1	0	 2147483.647
 147.763	 1.530	resp	0	0	 0.000
 149.293	 1.463	jitter	0	0	 0.000
 150.756	 0.532	fixation_cross	0	0	 0.000
 151.288	 0.798	pres	1	0	 2147483.647
 152.086	 1.529	resp	0	0	 0.000
 153.615	 1.463	jitter	0	0	 0.000
 155.078	 0.532	fixation_cross	0	0	 0.000
 155.610	 0.798	pres	1	0	 2147483.647
 156.408	 1.530	resp	0	0	 0.000
 157.938	 1.330	jitter	0	0	 0.000
 159.268	 0.532	fixation_cross	0	0	 0.000
 159.800	 0.798	pres	1	0	 2147483.647
 160.598	 1.529	resp	0	0	 0.000
 162.127	 1.330	jitter	0	0	 0.000
 163.457	 0.532	fixation_cross	0	0	 0.000
 163.989	 0.798	pres	1	0	 2147483.647
 164.787	 1.529	resp	0	0	 0.000
 166.316	 1.065	jitter	0	0	 0.000
 167.381	 0.531	fixation_cross	0	0	 0.000
 167.912	 0.799	pres	1	0	 2147483.647
 168.711	 1.529	resp	0	0	 0.000
 170.240	 1.131	jitter	0	0	 0.000
 171.371	 0.531	fixation_cross	0	0	 0.000
 171.902	 0.798	pres	1	0	 2147483.647
 172.700	 1.530	resp	0	0	 0.000
 174.230	 1.064	jitter	0	0	 0.000
 175.294	 0.532	fixation_cross	0	0	 0.000
 175.826	 0.798	pres	1	0	 2147483.647
 176.624	 1.529	resp	0	0	 0.000
 178.153	 1.331	jitter	0	0	 0.000
 179.484	 0.532	fixation_cross	0	0	 0.000
 180.016	 0.798	pres	1	0	 2147483.647
 180.814	 1.529	resp	0	0	 0.000
 182.343	 0.931	jitter	0	0	 0.000
 183.274	 0.532	fixation_cross	0	0	 0.000
 183.806	 0.798	pres	1	0	 2147483.647
 184.604	 1.530	resp	0	0	 0.000
 186.134	 1.263	jitter	0	0	 0.000
 187.397	 0.532	fixation_cross	0	0	 0.000
 187.929	 0.798	pres	1	0	 2147483.647
 188.727	 1.529	resp	0	0	 0.000
 190.256	 1.065	jitter	0	0	 0.000
 191.321	 0.531	fixation_cross	0	0	 0.000
 191.852	 0.798	pres	1	0	 2147483.647
 192.650	 1.530	resp	0	0	 0.000
 194.180	 1.330	jitter	0	0	 0.000
 195.510	 0.532	fixation_cross	0	0	 0.000
 196.042	 0.798	pres	1	0	 2147483.647
 196.840	 1.530	resp	0	0	 0.000
 198.370	 1.263	jitter	0	0	 0.000
 199.633	 0.532	fixation_cross	0	0	 0.000
 200.165	 0.798	pres	1	0	 2147483.647
 200.963	 1.530	resp	0	0	 0.000
 202.493	 1.130	jitter	0	0	 0.000
 203.623	 0.532	fixation_cross	0	0	 0.000
 204.155	 0.798	pres	1	0	 2147483.647
 204.953	 1.529	resp	0	0	 0.000
 206.482	 1.331	jitter	0	0	 0.000
 207.813	 0.532	fixation_cross	0	0	 0.000
 208.345	 0.797	pres	1	0	 2147483.647
 209.142	 1.530	resp	0	0	 0.000
 210.672	 1.131	jitter	0	0	 0.000
 211.803	 0.532	fixation_cross	0	0	 0.000
 212.335	 0.798	pres	1	0	 2147483.647
 213.133	 1.529	resp	0	0	 0.000
 214.662	 1.064	jitter	0	0	 0.000
 215.726	 0.532	fixation_cross	0	0	 0.000
 216.258	 0.798	pres	1	0	 2147483.647
 217.056	 1.530	resp	0	0	 0.000
 218.586	 0.931	jitter	0	0	 0.000
 219.517	 0.531	fixation_cross	0	0	 0.000
 220.048	 0.799	pres	1	0	 2147483.647
 220.847	 1.529	resp	0	0	 0.000
 222.376	 1.064	jitter	0	0	 0.000
 223.440	 0.532	fixation_cross	0	0	 0.000
 223.972	 0.798	pres	1	0	 2147483.647
 224.770	 1.530	resp	0	0	 0.000
 226.300	 0.931	jitter	0	0	 0.000
 227.231	 0.531	fixation_cross	0	0	 0.000
 227.762	 0.799	pres	1	0	 2147483.647
 228.561	 1.529	resp	0	0	 0.000
 230.090	 1.330	jitter	0	0	 0.000
 231.420	 0.532	fixation_cross	0	0	 0.000
 231.952	 0.798	pres	1	0	 2147483.647
 232.750	 1.529	resp	0	0	 0.000
 234.279	 1.464	jitter	0	0	 0.000
 235.743	 0.531	fixation_cross	0	0	 0.000
 236.274	 0.798	pres	1	0	 2147483.647
 237.072	 1.530	resp	0	0	 0.000
 238.602	 1.131	jitter	0	0	 0.000
 239.733	 0.532	fixation_cross	0	0	 0.000
 240.265	 0.798	pres	1	0	 2147483.647
 241.063	 1.529	resp	0	0	 0.000
 242.592	 1.330	jitter	0	0	 0.000
 243.922	 0.532	fixation_cross	0	0	 0.000
 244.454	 0.798	pres	1	0	 2147483.647
 245.252	 1.529	resp	0	0	 0.000
 246.781	 1.463	jitter	0	0	 0.000
 248.244	 0.533	fixation_cross	0	0	 0.000
 248.777	 0.798	pres	1	0	 2147483.647
 249.575	 1.529	resp	0	0	 0.000
 251.104	 1.263	jitter	0	0	 0.000
 252.367	 0.532	fixation_cross	0	0	 0.000
 252.899	 0.798	pres	1	0	 2147483.647
 253.697	 1.530	resp	0	0	 0.000
 255.227	 1.330	jitter	0	0	 0.000
 256.557	 0.532	fixation_cross	0	0	 0.000
 257.089	 0.798	pres	1	0	 2147483.647
 257.887	 1.530	resp	0	0	 0.000
 259.417	 0.931	jitter	0	0	 0.000
 260.348	 0.531	fixation_cross	0	0	 0.000
 260.879	 0.798	pres	1	0	 2147483.647
 261.677	 1.530	resp	0	0	 0.000
 263.207	 1.330	jitter	0	0	 0.000
 264.537	 0.532	fixation_cross	0	0	 0.000
 265.069	 0.798	pres	1	0	 2147483.647
 265.867	 1.530	resp	0	0	 0.000
 267.397	 1.263	jitter	0	0	 0.000
 268.660	 0.532	fixation_cross	0	0	 0.000
 269.192	 0.798	pres	1	0	 2147483.647
 269.990	 1.529	resp	0	0	 0.000
 271.519	 0.931	jitter	0	0	 0.000
 272.450	 0.532	fixation_cross	0	0	 0.000
 272.982	 0.798	pres	1	0	 2147483.647
 273.780	 1.530	resp	0	0	 0.000
 275.310	 0.931	jitter	0	0	 0.000
 276.241	 0.532	fixation_cross	0	0	 0.000
 276.773	 0.798	pres	1	0	 2147483.647
 277.571	 1.529	resp	0	0	 0.000
 279.100	 0.931	jitter	0	0	 0.000
 280.031	 0.532	fixation_cross	0	0	 0.000
 280.563	 0.798	pres	1	0	 2147483.647
 281.361	 1.530	resp	0	0	 0.000
 282.891	 1.064	jitter	0	0	 0.000
 283.955	 0.532	fixation_cross	0	0	 0.000
 284.487	 0.798	pres	1	0	 2147483.647
 285.285	 1.529	resp	0	0	 0.000
 286.814	 1.264	jitter	0	0	 0.000
 288.078	 0.532	fixation_cross	0	0	 0.000
 288.610	 0.798	pres	1	0	 2147483.647
 289.408	 1.529	resp	0	0	 0.000
 290.937	 1.065	jitter	0	0	 0.000
 292.002	 0.531	fixation_cross	0	0	 0.000
 292.533	 0.798	pres	1	0	 2147483.647
 293.331	 1.530	resp	0	0	 0.000
 294.861	 1.131	jitter	0	0	 0.000
 295.992	 0.531	fixation_cross	0	0	 0.000
 296.523	 0.798	pres	1	0	 2147483.647
 297.321	 1.530	resp	0	0	 0.000
 298.851	 1.064	jitter	0	0	 0.000
 299.915	 0.532	fixation_cross	0	0	 0.000
 300.447	 0.798	pres	1	0	 2147483.647
 301.245	 1.529	resp	0	0	 0.000
 302.774	 0.932	jitter	0	0	 0.000
 303.706	 0.531	fixation_cross	0	0	 0.000
 304.237	 0.798	pres	1	0	 2147483.647
 305.035	 1.530	resp	0	0	 0.000
 306.565	 1.130	jitter	0	0	 0.000
 307.695	 0.532	fixation_cross	0	0	 0.000
 308.227	 0.798	pres	1	0	 2147483.647
 309.025	 1.530	resp	0	0	 0.000
 310.555	 1.463	jitter	0	0	 0.000
 312.018	 0.532	fixation_cross	0	0	 0.000
 312.550	 0.798	pres	1	0	 2147483.647
 313.348	 1.529	resp	0	0	 0.000
 314.877	 1.330	jitter	0	0	 0.000
 316.207	 0.532	fixation_cross	0	0	 0.000
 316.739	 0.799	pres	1	0	 2147483.647
 317.538	 1.529	resp	0	0	 0.000
 319.067	 1.463	jitter	0	0	 0.000
 320.530	 0.532	fixation_cross	0	0	 0.000
 321.062	 0.798	pres	1	0	 2147483.647
 321.860	 1.529	resp	0	0	 0.000
 323.389	 1.131	jitter	0	0	 0.000
 324.520	 0.532	fixation_cross	0	0	 0.000
 325.052	 0.798	pres	1	0	 2147483.647
 325.850	 1.529	resp	0	0	 0.000
 327.379	 1.264	jitter	0	0	 0.000
 328.643	 0.532	fixation_cross	0	0	 0.000
 329.175	 0.798	pres	1	0	 2147483.647
 329.973	 1.529	resp	0	0	 0.000
 331.502	 1.264	jitter	0	0	 0.000
 332.766	 0.532	fixation_cross	0	0	 0.000
 333.298	 0.798	pres	1	0	 2147483.647
 334.096	 1.529	resp	0	0	 0.000
 335.625	 1.064	jitter	0	0	 0.000
 336.689	 0.532	fixation_cross	0	0	 0.000
 337.221	 0.798	pres	1	0	 2147483.647
 338.019	 1.530	resp	0	0	 0.000
 339.549	 1.463	jitter	0	0	 0.000
 341.012	 0.532	fixation_cross	0	0	 0.000
 341.544	 0.798	pres	1	0	 2147483.647
 342.342	 1.530	resp	0	0	 0.000
 343.872	 0.930	jitter	0	0	 0.000
 344.802	 0.532	fixation_cross	0	0	 0.000
 345.334	 0.798	pres	1	0	 2147483.647
 346.132	 1.530	resp	0	0	 0.000
 347.662	 1.130	jitter	0	0	 0.000
 348.792	 0.532	fixation_cross	0	0	 0.000
 349.324	 0.798	pres	1	0	 2147483.647
 350.122	 1.530	resp	0	0	 0.000
 351.652	 1.263	jitter	0	0	 0.000
 352.915	 0.532	fixation_cross	0	0	 0.000
 353.447	 0.798	pres	1	0	 2147483.647
 354.245	 1.530	resp	0	0	 0.000
 355.775	 1.064	jitter	0	0	 0.000
 356.839	 0.532	fixation_cross	0	0	 0.000
 357.371	 0.798	pres	1	0	 2147483.647
 358.169	 1.529	resp	0	0	 0.000
 359.698	 0.931	jitter	0	0	 0.000
 360.629	 0.532	fixation_cross	0	0	 0.000
 361.161	 0.798	pres	1	0	 2147483.647
 361.959	 1.530	resp	0	0	 0.000
 363.489	 1.463	jitter	0	0	 0.000
 364.952	 0.532	fixation_cross	0	0	 0.000
 365.484	 0.798	pres	1	0	 2147483.647
 366.282	 1.529	resp	0	0	 0.000
 367.811	 11.238	jitter	0	0	 0.000
