onset	duration	trial_type	expected_response	given_response	response_time
 0.000	 1.995	instruction	0	0	 0.000
 1.995	 1.995	filler	0	0	 0.000
 3.990	 0.532	fixation_cross	0	0	 0.000
 4.522	 0.798	pres	1	0	 2147483.647
 5.320	 1.529	resp	0	0	 0.000
 6.849	 1.464	jitter	0	0	 0.000
 8.313	 0.531	fixation_cross	0	0	 0.000
 8.844	 0.798	pres	1	0	 2147483.647
 9.642	 1.530	resp	0	0	 0.000
 11.172	 1.130	jitter	0	0	 0.000
 12.302	 0.532	fixation_cross	0	0	 0.000
 12.834	 0.798	pres	1	0	 2147483.647
 13.632	 1.530	resp	0	0	 0.000
 15.162	 1.264	jitter	0	0	 0.000
 16.426	 0.532	fixation_cross	0	0	 0.000
 16.958	 0.798	pres	1	0	 2147483.647
 17.756	 1.529	resp	0	0	 0.000
 19.285	 1.330	jitter	0	0	 0.000
 20.615	 0.532	fixation_cross	0	0	 0.000
 21.147	 0.798	pres	1	0	 2147483.647
 21.945	 1.529	resp	0	0	 0.000
 23.474	 1.064	jitter	0	0	 0.000
 24.538	 0.532	fixation_cross	0	0	 0.000
 25.070	 0.798	pres	1	0	 2147483.647
 25.868	 1.530	resp	0	0	 0.000
 27.398	 1.064	jitter	0	0	 0.000
 28.462	 0.532	fixation_cross	0	0	 0.000
 28.994	 0.798	pres	1	0	 2147483.647
 29.792	 1.529	resp	0	0	 0.000
 31.321	 1.064	jitter	0	0	 0.000
 32.385	 0.532	fixation_cross	0	0	 0.000
 32.917	 0.798	pres	1	0	 2147483.647
 33.715	 1.530	resp	0	0	 0.000
 35.245	 0.931	jitter	0	0	 0.000
 36.176	 0.532	fixation_cross	0	0	 0.000
 36.708	 0.798	pres	1	0	 2147483.647
 37.506	 1.529	resp	0	0	 0.000
 39.035	 1.264	jitter	0	0	 0.000
 40.299	 0.532	fixation_cross	0	0	 0.000
 40.831	 0.798	pres	1	0	 2147483.647
 41.629	 1.529	resp	0	0	 0.000
 43.158	 1.330	jitter	0	0	 0.000
 44.488	 0.532	fixation_cross	0	0	 0.000
 45.020	 0.798	pres	1	0	 2147483.647
 45.818	 1.530	resp	0	0	 0.000
 47.348	 1.463	jitter	0	0	 0.000
 48.811	 0.532	fixation_cross	0	0	 0.000
 49.343	 0.798	pres	1	0	 2147483.647
 50.141	 1.529	resp	0	0	 0.000
 51.670	 1.131	jitter	0	0	 0.000
 52.801	 0.532	fixation_cross	0	0	 0.000
 53.333	 0.798	pres	1	0	 2147483.647
 54.131	 1.529	resp	0	0	 0.000
 55.660	 1.264	jitter	0	0	 0.000
 56.924	 0.532	fixation_cross	0	0	 0.000
 57.456	 0.798	pres	1	0	 2147483.647
 58.254	 1.529	resp	0	0	 0.000
 59.783	 0.931	jitter	0	0	 0.000
 60.714	 0.532	fixation_cross	0	0	 0.000
 61.246	 0.798	pres	1	0	 2147483.647
 62.044	 1.530	resp	0	0	 0.000
 63.574	 1.463	jitter	0	0	 0.000
 65.037	 0.532	fixation_cross	0	0	 0.000
 65.569	 0.798	pres	1	0	 2147483.647
 66.367	 1.529	resp	0	0	 0.000
 67.896	 0.931	jitter	0	0	 0.000
 68.827	 0.532	fixation_cross	0	0	 0.000
 69.359	 0.798	pres	1	0	 2147483.647
 70.157	 1.530	resp	0	0	 0.000
 71.687	 1.463	jitter	0	0	 0.000
 73.150	 0.532	fixation_cross	0	0	 0.000
 73.682	 0.798	pres	1	0	 2147483.647
 74.480	 1.529	resp	0	0	 0.000
 76.009	 1.131	jitter	0	0	 0.000
 77.140	 0.532	fixation_cross	0	0	 0.000
 77.672	 0.798	pres	1	0	 2147483.647
 78.470	 1.529	resp	0	0	 0.000
 79.999	 1.264	jitter	0	0	 0.000
 81.263	 0.532	fixation_cross	0	0	 0.000
 81.795	 0.798	pres	1	0	 2147483.647
 82.593	 1.529	resp	0	0	 0.000
 84.122	 1.330	jitter	0	0	 0.000
 85.452	 0.532	fixation_cross	0	0	 0.000
 85.984	 0.798	pres	1	0	 2147483.647
 86.782	 1.530	resp	0	0	 0.000
 88.312	 1.130	jitter	0	0	 0.000
 89.442	 0.532	fixation_cross	0	0	 0.000
 89.974	 0.798	pres	1	0	 2147483.647
 90.772	 1.530	resp	0	0	 0.000
 92.302	 0.931	jitter	0	0	 0.000
 93.233	 0.532	fixation_cross	0	0	 0.000
 93.765	 0.798	pres	1	0	 2147483.647
 94.563	 1.529	resp	0	0	 0.000
 96.092	 0.931	jitter	0	0	 0.000
 97.023	 0.532	fixation_cross	0	0	 0.000
 97.555	 0.798	pres	1	0	 2147483.647
 98.353	 1.530	resp	0	0	 0.000
 99.883	 1.330	jitter	0	0	 0.000
 101.213	 0.532	fixation_cross	0	0	 0.000
 101.745	 0.797	pres	1	0	 2147483.647
 102.542	 1.530	resp	0	0	 0.000
 104.072	 1.131	jitter	0	0	 0.000
 105.203	 0.532	fixation_cross	0	0	 0.000
 105.735	 0.798	pres	1	0	 2147483.647
 106.533	 1.529	resp	0	0	 0.000
 108.062	 0.931	jitter	0	0	 0.000
 108.993	 0.532	fixation_cross	0	0	 0.000
 109.525	 0.798	pres	1	0	 2147483.647
 110.323	 1.529	resp	0	0	 0.000
 111.852	 1.331	jitter	0	0	 0.000
 113.183	 0.532	fixation_cross	0	0	 0.000
 113.715	 0.798	pres	1	0	 2147483.647
 114.513	 1.529	resp	0	0	 0.000
 116.042	 1.330	jitter	0	0	 0.000
 117.372	 0.532	fixation_cross	0	0	 0.000
 117.904	 0.798	pres	1	0	 2147483.647
 118.702	 1.530	resp	0	0	 0.000
 120.232	 1.463	jitter	0	0	 0.000
 121.695	 0.532	fixation_cross	0	0	 0.000
 122.227	 0.798	pres	1	0	 2147483.647
 123.025	 1.529	resp	0	0	 0.000
 124.554	 1.330	jitter	0	0	 0.000
 125.884	 0.532	fixation_cross	0	0	 0.000
 126.416	 0.798	pres	1	0	 2147483.647
 127.214	 1.530	resp	0	0	 0.000
 128.744	 1.130	jitter	0	0	 0.000
 129.874	 0.532	fixation_cross	0	0	 0.000
 130.406	 0.798	pres	1	0	 2147483.647
 131.204	 1.529	resp	0	0	 0.000
 132.733	 0.932	jitter	0	0	 0.000
 133.665	 0.531	fixation_cross	0	0	 0.000
 134.196	 0.798	pres	1	0	 2147483.647
 134.994	 1.530	resp	0	0	 0.000
 136.524	 1.463	jitter	0	0	 0.000
 137.987	 0.532	fixation_cross	0	0	 0.000
 138.519	 0.798	pres	1	0	 2147483.647
 139.317	 1.530	resp	0	0	 0.000
 140.847	 1.463	jitter	0	0	 0.000
 142.310	 0.531	fixation_cross	0	0	 0.000
 142.841	 0.798	pres	1	0	 2147483.647
 143.639	 1.530	resp	0	0	 0.000
 145.169	 1.330	jitter	0	0	 0.000
 146.499	 0.532	fixation_cross	0	0	 0.000
 147.031	 0.798	pres	1	0	 2147483.647
 147.829	 1.530	resp	0	0	 0.000
 149.359	 0.931	jitter	0	0	 0.000
 150.290	 0.532	fixation_cross	0	0	 0.000
 150.822	 0.798	pres	1	0	 2147483.647
 151.620	 1.529	resp	0	0	 0.000
 153.149	 1.463	jitter	0	0	 0.000
 154.612	 0.532	fixation_cross	0	0	 0.000
 155.144	 0.798	pres	1	0	 2147483.647
 155.942	 1.529	resp	0	0	 0.000
 157.471	 1.131	jitter	0	0	 0.000
 158.602	 0.532	fixation_cross	0	0	 0.000
 159.134	 0.798	pres	1	0	 2147483.647
 159.932	 1.529	resp	0	0	 0.000
 161.461	 1.330	jitter	0	0	 0.000
 162.791	 0.533	fixation_cross	0	0	 0.000
 163.324	 0.798	pres	1	0	 2147483.647
 164.122	 1.529	resp	0	0	 0.000
 165.651	 0.931	jitter	0	0	 0.000
 166.582	 0.532	fixation_cross	0	0	 0.000
 167.114	 0.798	pres	1	0	 2147483.647
 167.912	 1.530	resp	0	0	 0.000
 169.442	 1.463	jitter	0	0	 0.000
 170.905	 0.531	fixation_cross	0	0	 0.000
 171.436	 0.798	pres	1	0	 2147483.647
 172.234	 1.530	resp	0	0	 0.000
 173.764	 1.064	jitter	0	0	 0.000
 174.828	 0.532	fixation_cross	0	0	 0.000
 175.360	 0.798	pres	1	0	 2147483.647
 176.158	 1.529	resp	0	0	 0.000
 177.687	 1.330	jitter	0	0	 0.000
 179.017	 0.533	fixation_cross	0	0	 0.000
 179.550	 0.798	pres	1	0	 2147483.647
 180.348	 1.529	resp	0	0	 0.000
 181.877	 1.130	jitter	0	0	 0.000
 183.007	 0.533	fixation_cross	0	0	 0.000
 183.540	 0.798	pres	1	0	 2147483.647
 184.338	 1.529	resp	0	0	 0.000
 185.867	 1.330	jitter	0	0	 0.000
 187.197	 0.532	fixation_cross	0	0	 0.000
 187.729	 0.798	pres	1	0	 2147483.647
 188.527	 1.529	resp	0	0	 0.000
 190.056	 0.931	jitter	0	0	 0.000
 190.987	 0.532	fixation_cross	0	0	 0.000
 191.519	 0.798	pres	1	0	 2147483.647
 192.317	 1.530	resp	0	0	 0.000
 193.847	 1.264	jitter	0	0	 0.000
 195.111	 0.531	fixation_cross	0	0	 0.000
 195.642	 0.798	pres	1	0	 2147483.647
 196.440	 1.530	resp	0	0	 0.000
 197.970	 1.130	jitter	0	0	 0.000
 199.100	 0.533	fixation_cross	0	0	 0.000
 199.633	 0.798	pres	1	0	 2147483.647
 200.431	 1.529	resp	0	0	 0.000
 201.960	 1.463	jitter	0	0	 0.000
 203.423	 0.532	fixation_cross	0	0	 0.000
 203.955	 0.798	pres	1	0	 2147483.647
 204.753	 1.529	resp	0	0	 0.000
 206.282	 0.931	jitter	0	0	 0.000
 207.213	 0.532	fixation_cross	0	0	 0.000
 207.745	 0.798	pres	1	0	 2147483.647
 208.543	 1.530	resp	0	0	 0.000
 210.073	 1.131	jitter	0	0	 0.000
 211.204	 0.531	fixation_cross	0	0	 0.000
 211.735	 0.798	pres	1	0	 2147483.647
 212.533	 1.530	resp	0	0	 0.000
 214.063	 1.330	jitter	0	0	 0.000
 215.393	 0.532	fixation_cross	0	0	 0.000
 215.925	 0.798	pres	1	0	 2147483.647
 216.723	 1.530	resp	0	0	 0.000
 218.253	 1.329	jitter	0	0	 0.000
 219.582	 0.532	fixation_cross	0	0	 0.000
 220.114	 0.798	pres	1	0	 2147483.647
 220.912	 1.530	resp	0	0	 0.000
 222.442	 0.931	jitter	0	0	 0.000
 223.373	 0.532	fixation_cross	0	0	 0.000
 223.905	 0.798	pres	1	0	 2147483.647
 224.703	 1.529	resp	0	0	 0.000
 226.232	 0.931	jitter	0	0	 0.000
 227.163	 0.532	fixation_cross	0	0	 0.000
 227.695	 0.798	pres	1	0	 2147483.647
 228.493	 1.530	resp	0	0	 0.000
 230.023	 1.263	jitter	0	0	 0.000
 231.286	 0.532	fixation_cross	0	0	 0.000
 231.818	 0.798	pres	1	0	 2147483.647
 232.616	 1.530	resp	0	0	 0.000
 234.146	 1.064	jitter	0	0	 0.000
 235.210	 0.532	fixation_cross	0	0	 0.000
 235.742	 0.798	pres	1	0	 2147483.647
 236.540	 1.529	resp	0	0	 0.000
 238.069	 1.065	jitter	0	0	 0.000
 239.134	 0.531	fixation_cross	0	0	 0.000
 239.665	 0.798	pres	1	0	 2147483.647
 240.463	 1.530	resp	0	0	 0.000
 241.993	 1.130	jitter	0	0	 0.000
 243.123	 0.532	fixation_cross	0	0	 0.000
 243.655	 0.798	pres	1	0	 2147483.647
 244.453	 1.530	resp	0	0	 0.000
 245.983	 1.263	jitter	0	0	 0.000
 247.246	 0.532	fixation_cross	0	0	 0.000
 247.778	 0.798	pres	1	0	 2147483.647
 248.576	 1.530	resp	0	0	 0.000
 250.106	 1.263	jitter	0	0	 0.000
 251.369	 0.532	fixation_cross	0	0	 0.000
 251.901	 0.798	pres	1	0	 2147483.647
 252.699	 1.530	resp	0	0	 0.000
 254.229	 1.064	jitter	0	0	 0.000
 255.293	 0.532	fixation_cross	0	0	 0.000
 255.825	 0.798	pres	1	0	 2147483.647
 256.623	 1.529	resp	0	0	 0.000
 258.152	 1.131	jitter	0	0	 0.000
 259.283	 0.532	fixation_cross	0	0	 0.000
 259.815	 0.798	pres	1	0	 2147483.647
 260.613	 1.529	resp	0	0	 0.000
 262.142	 1.064	jitter	0	0	 0.000
 263.206	 0.532	fixation_cross	0	0	 0.000
 263.738	 0.798	pres	1	0	 2147483.647
 264.536	 1.530	resp	0	0	 0.000
 266.066	 0.931	jitter	0	0	 0.000
 266.997	 0.532	fixation_cross	0	0	 0.000
 267.529	 0.798	pres	1	0	 2147483.647
 268.327	 1.529	resp	0	0	 0.000
 269.856	 1.463	jitter	0	0	 0.000
 271.319	 0.532	fixation_cross	0	0	 0.000
 271.851	 0.798	pres	1	0	 2147483.647
 272.649	 1.530	resp	0	0	 0.000
 274.179	 1.263	jitter	0	0	 0.000
 275.442	 0.532	fixation_cross	0	0	 0.000
 275.974	 0.798	pres	1	0	 2147483.647
 276.772	 1.530	resp	0	0	 0.000
 278.302	 1.330	jitter	0	0	 0.000
 279.632	 0.532	fixation_cross	0	0	 0.000
 280.164	 0.798	pres	1	0	 2147483.647
 280.962	 1.529	resp	0	0	 0.000
 282.491	 1.463	jitter	0	0	 0.000
 283.954	 0.532	fixation_cross	0	0	 0.000
 284.486	 0.798	pres	1	0	 2147483.647
 285.284	 1.530	resp	0	0	 0.000
 286.814	 0.931	jitter	0	0	 0.000
 287.745	 0.531	fixation_cross	0	0	 0.000
 288.276	 0.798	pres	1	0	 2147483.647
 289.074	 1.530	resp	0	0	 0.000
 290.604	 1.064	jitter	0	0	 0.000
 291.668	 0.532	fixation_cross	0	0	 0.000
 292.200	 0.798	pres	1	0	 2147483.647
 292.998	 1.529	resp	0	0	 0.000
 294.527	 1.065	jitter	0	0	 0.000
 295.592	 0.532	fixation_cross	0	0	 0.000
 296.124	 0.798	pres	1	0	 2147483.647
 296.922	 1.529	resp	0	0	 0.000
 298.451	 1.131	jitter	0	0	 0.000
 299.582	 0.532	fixation_cross	0	0	 0.000
 300.114	 0.798	pres	1	0	 2147483.647
 300.912	 1.529	resp	0	0	 0.000
 302.441	 1.463	jitter	0	0	 0.000
 303.904	 0.532	fixation_cross	0	0	 0.000
 304.436	 0.798	pres	1	0	 2147483.647
 305.234	 1.530	resp	0	0	 0.000
 306.764	 1.263	jitter	0	0	 0.000
 308.027	 0.532	fixation_cross	0	0	 0.000
 308.559	 0.798	pres	1	0	 2147483.647
 309.357	 1.530	resp	0	0	 0.000
 310.887	 1.064	jitter	0	0	 0.000
 311.951	 0.532	fixation_cross	0	0	 0.000
 312.483	 0.798	pres	1	0	 2147483.647
 313.281	 1.529	resp	0	0	 0.000
 314.810	 1.463	jitter	0	0	 0.000
 316.273	 0.532	fixation_cross	0	0	 0.000
 316.805	 0.798	pres	1	0	 2147483.647
 317.603	 1.529	resp	0	0	 0.000
 319.132	 1.264	jitter	0	0	 0.000
 320.396	 0.532	fixation_cross	0	0	 0.000
 320.928	 0.798	pres	1	0	 2147483.647
 321.726	 1.530	resp	0	0	 0.000
 323.256	 1.064	jitter	0	0	 0.000
 324.320	 0.532	fixation_cross	0	0	 0.000
 324.852	 0.798	pres	1	0	 2147483.647
 325.650	 1.529	resp	0	0	 0.000
 327.179	 1.064	jitter	0	0	 0.000
 328.243	 0.532	fixation_cross	0	0	 0.000
 328.775	 0.798	pres	1	0	 2147483.647
 329.573	 1.530	resp	0	0	 0.000
 331.103	 1.463	jitter	0	0	 0.000
 332.566	 0.531	fixation_cross	0	0	 0.000
 333.097	 0.798	pres	1	0	 2147483.647
 333.895	 1.530	resp	0	0	 0.000
 335.425	 1.064	jitter	0	0	 0.000
 336.489	 0.532	fixation_cross	0	0	 0.000
 337.021	 0.798	pres	1	0	 2147483.647
 337.819	 1.529	resp	0	0	 0.000
 339.348	 1.131	jitter	0	0	 0.000
 340.479	 0.532	fixation_cross	0	0	 0.000
 341.011	 0.798	pres	1	0	 2147483.647
 341.809	 1.529	resp	0	0	 0.000
 343.338	 1.264	jitter	0	0	 0.000
 344.602	 0.532	fixation_cross	0	0	 0.000
 345.134	 0.798	pres	1	0	 2147483.647
 345.932	 1.530	resp	0	0	 0.000
 347.462	 1.130	jitter	0	0	 0.000
 348.592	 0.532	fixation_cross	0	0	 0.000
 349.124	 0.798	pres	1	0	 2147483.647
 349.922	 1.530	resp	0	0	 0.000
 351.452	 1.263	jitter	0	0	 0.000
 352.715	 0.532	fixation_cross	0	0	 0.000
 353.247	 0.798	pres	1	0	 2147483.647
 354.045	 1.529	resp	0	0	 0.000
 355.574	 1.264	jitter	0	0	 0.000
 356.838	 0.532	fixation_cross	0	0	 0.000
 357.370	 0.798	pres	1	0	 2147483.647
 358.168	 1.530	resp	0	0	 0.000
 359.698	 1.263	jitter	0	0	 0.000
 360.961	 0.532	fixation_cross	0	0	 0.000
 361.493	 0.798	pres	1	0	 2147483.647
 362.291	 1.530	resp	0	0	 0.000
 363.821	 1.329	jitter	0	0	 0.000
 365.150	 0.532	fixation_cross	0	0	 0.000
 365.682	 0.798	pres	1	0	 2147483.647
 366.480	 1.530	resp	0	0	 0.000
 368.010	 11.039	jitter	0	0	 0.000
