onset	duration	trial_type	expected_response	given_response	response_time
 0.000	 1.995	instruction	0	0	 0.000
 1.995	 1.995	filler	0	0	 0.000
 3.990	 0.532	fixation_cross	0	0	 0.000
 4.522	 0.798	pres	1	0	 2147483.647
 5.320	 1.529	resp	0	0	 0.000
 6.849	 1.264	jitter	0	0	 0.000
 8.113	 0.532	fixation_cross	0	0	 0.000
 8.645	 0.798	pres	1	0	 2147483.647
 9.443	 1.530	resp	0	0	 0.000
 10.973	 1.463	jitter	0	0	 0.000
 12.436	 0.531	fixation_cross	0	0	 0.000
 12.967	 0.798	pres	1	0	 2147483.647
 13.765	 1.530	resp	0	0	 0.000
 15.295	 1.263	jitter	0	0	 0.000
 16.558	 0.533	fixation_cross	0	0	 0.000
 17.091	 0.798	pres	1	0	 2147483.647
 17.889	 1.529	resp	0	0	 0.000
 19.418	 1.263	jitter	0	0	 0.000
 20.681	 0.532	fixation_cross	0	0	 0.000
 21.213	 0.798	pres	1	0	 2147483.647
 22.011	 1.530	resp	0	0	 0.000
 23.541	 1.264	jitter	0	0	 0.000
 24.805	 0.531	fixation_cross	0	0	 0.000
 25.336	 0.798	pres	1	0	 2147483.647
 26.134	 1.530	resp	0	0	 0.000
 27.664	 1.263	jitter	0	0	 0.000
 28.927	 0.533	fixation_cross	0	0	 0.000
 29.460	 0.798	pres	1	0	 2147483.647
 30.258	 1.529	resp	0	0	 0.000
 31.787	 1.064	jitter	0	0	 0.000
 32.851	 0.532	fixation_cross	0	0	 0.000
 33.383	 0.798	pres	1	0	 2147483.647
 34.181	 1.530	resp	0	0	 0.000
 35.711	 0.930	jitter	0	0	 0.000
 36.641	 0.532	fixation_cross	0	0	 0.000
 37.173	 0.799	pres	1	0	 2147483.647
 37.972	 1.529	resp	0	0	 0.000
 39.501	 1.463	jitter	0	0	 0.000
 40.964	 0.532	fixation_cross	0	0	 0.000
 41.496	 0.798	pres	1	0	 2147483.647
 42.294	 1.529	resp	0	0	 0.000
 43.823	 1.463	jitter	0	0	 0.000
 45.286	 0.533	fixation_cross	0	0	 0.000
 45.819	 0.798	pres	1	0	 2147483.647
 46.617	 1.529	resp	0	0	 0.000
 48.146	 1.263	jitter	0	0	 0.000
 49.409	 0.532	fixation_cross	0	0	 0.000
 49.941	 0.798	pres	1	0	 2147483.647
 50.739	 1.530	resp	0	0	 0.000
 52.269	 0.931	jitter	0	0	 0.000
 53.200	 0.532	fixation_cross	0	0	 0.000
 53.732	 0.798	pres	1	0	 2147483.647
 54.530	 1.529	resp	0	0	 0.000
 56.059	 1.464	jitter	0	0	 0.000
 57.523	 0.532	fixation_cross	0	0	 0.000
 58.055	 0.798	pres	1	0	 2147483.647
 58.853	 1.529	resp	0	0	 0.000
 60.382	 0.931	jitter	0	0	 0.000
 61.313	 0.532	fixation_cross	0	0	 0.000
 61.845	 0.798	pres	1	0	 2147483.647
 62.643	 1.530	resp	0	0	 0.000
 64.173	 1.130	jitter	0	0	 0.000
 65.303	 0.532	fixation_cross	0	0	 0.000
 65.835	 0.798	pres	1	0	 2147483.647
 66.633	 1.530	resp	0	0	 0.000
 68.163	 1.329	jitter	0	0	 0.000
 69.492	 0.532	fixation_cross	0	0	 0.000
 70.024	 0.798	pres	1	0	 2147483.647
 70.822	 1.530	resp	0	0	 0.000
 72.352	 1.330	jitter	0	0	 0.000
 73.682	 0.532	fixation_cross	0	0	 0.000
 74.214	 0.798	pres	1	0	 2147483.647
 75.012	 1.529	resp	0	0	 0.000
 76.541	 1.463	jitter	0	0	 0.000
 78.004	 0.532	fixation_cross	0	0	 0.000
 78.536	 0.798	pres	1	0	 2147483.647
 79.334	 1.530	resp	0	0	 0.000
 80.864	 1.330	jitter	0	0	 0.000
 82.194	 0.532	fixation_cross	0	0	 0.000
 82.726	 0.798	pres	1	0	 2147483.647
 83.524	 1.529	resp	0	0	 0.000
 85.053	 1.330	jitter	0	0	 0.000
 86.383	 0.533	fixation_cross	0	0	 0.000
 86.916	 0.798	pres	1	0	 2147483.647
 87.714	 1.529	resp	0	0	 0.000
 89.243	 0.931	jitter	0	0	 0.000
 90.174	 0.532	fixation_cross	0	0	 0.000
 90.706	 0.798	pres	1	0	 2147483.647
 91.504	 1.529	resp	0	0	 0.000
 93.033	 1.330	jitter	0	0	 0.000
 94.363	 0.532	fixation_cross	0	0	 0.000
 94.895	 0.798	pres	1	0	 2147483.647
 95.693	 1.530	resp	0	0	 0.000
 97.223	 1.463	jitter	0	0	 0.000
 98.686	 0.532	fixation_cross	0	0	 0.000
 99.218	 0.798	pres	1	0	 2147483.647
 100.016	 1.530	resp	0	0	 0.000
 101.546	 1.263	jitter	0	0	 0.000
 102.809	 0.532	fixation_cross	0	0	 0.000
 103.341	 0.798	pres	1	0	 2147483.647
 104.139	 1.529	resp	0	0	 0.000
 105.668	 1.331	jitter	0	0	 0.000
 106.999	 0.531	fixation_cross	0	0	 0.000
 107.530	 0.798	pres	1	0	 2147483.647
 108.328	 1.530	resp	0	0	 0.000
 109.858	 1.131	jitter	0	0	 0.000
 110.989	 0.531	fixation_cross	0	0	 0.000
 111.520	 0.798	pres	1	0	 2147483.647
 112.318	 1.530	resp	0	0	 0.000
 113.848	 1.463	jitter	0	0	 0.000
 115.311	 0.532	fixation_cross	0	0	 0.000
 115.843	 0.798	pres	1	0	 2147483.647
 116.641	 1.529	resp	0	0	 0.000
 118.170	 0.931	jitter	0	0	 0.000
 119.101	 0.532	fixation_cross	0	0	 0.000
 119.633	 0.798	pres	1	0	 2147483.647
 120.431	 1.530	resp	0	0	 0.000
 121.961	 0.931	jitter	0	0	 0.000
 122.892	 0.532	fixation_cross	0	0	 0.000
 123.424	 0.798	pres	1	0	 2147483.647
 124.222	 1.529	resp	0	0	 0.000
 125.751	 1.064	jitter	0	0	 0.000
 126.815	 0.532	fixation_cross	0	0	 0.000
 127.347	 0.798	pres	1	0	 2147483.647
 128.145	 1.530	resp	0	0	 0.000
 129.675	 1.330	jitter	0	0	 0.000
 131.005	 0.532	fixation_cross	0	0	 0.000
 131.537	 0.798	pres	1	0	 2147483.647
 132.335	 1.529	resp	0	0	 0.000
 133.864	 1.463	jitter	0	0	 0.000
 135.327	 0.532	fixation_cross	0	0	 0.000
 135.859	 0.798	pres	1	0	 2147483.647
 136.657	 1.530	resp	0	0	 0.000
 138.187	 1.263	jitter	0	0	 0.000
 139.450	 0.532	fixation_cross	0	0	 0.000
 139.982	 0.798	pres	1	0	 2147483.647
 140.780	 1.530	resp	0	0	 0.000
 142.310	 1.263	jitter	0	0	 0.000
 143.573	 0.533	fixation_cross	0	0	 0.000
 144.106	 0.797	pres	1	0	 2147483.647
 144.903	 1.530	resp	0	0	 0.000
 146.433	 1.130	jitter	0	0	 0.000
 147.563	 0.533	fixation_cross	0	0	 0.000
 148.096	 0.798	pres	1	0	 2147483.647
 148.894	 1.529	resp	0	0	 0.000
 150.423	 1.330	jitter	0	0	 0.000
 151.753	 0.532	fixation_cross	0	0	 0.000
 152.285	 0.798	pres	1	0	 2147483.647
 153.083	 1.529	resp	0	0	 0.000
 154.612	 0.931	jitter	0	0	 0.000
 155.543	 0.532	fixation_cross	0	0	 0.000
 156.075	 0.798	pres	1	0	 2147483.647
 156.873	 1.530	resp	0	0	 0.000
 158.403	 1.064	jitter	0	0	 0.000
 159.467	 0.532	fixation_cross	0	0	 0.000
 159.999	 0.798	pres	1	0	 2147483.647
 160.797	 1.529	resp	0	0	 0.000
 162.326	 1.131	jitter	0	0	 0.000
 163.457	 0.532	fixation_cross	0	0	 0.000
 163.989	 0.798	pres	1	0	 2147483.647
 164.787	 1.529	resp	0	0	 0.000
 166.316	 1.065	jitter	0	0	 0.000
 167.381	 0.531	fixation_cross	0	0	 0.000
 167.912	 0.798	pres	1	0	 2147483.647
 168.710	 1.530	resp	0	0	 0.000
 170.240	 1.463	jitter	0	0	 0.000
 171.703	 0.532	fixation_cross	0	0	 0.000
 172.235	 0.798	pres	1	0	 2147483.647
 173.033	 1.529	resp	0	0	 0.000
 174.562	 1.130	jitter	0	0	 0.000
 175.692	 0.533	fixation_cross	0	0	 0.000
 176.225	 0.798	pres	1	0	 2147483.647
 177.023	 1.529	resp	0	0	 0.000
 178.552	 1.264	jitter	0	0	 0.000
 179.816	 0.532	fixation_cross	0	0	 0.000
 180.348	 0.798	pres	1	0	 2147483.647
 181.146	 1.529	resp	0	0	 0.000
 182.675	 1.463	jitter	0	0	 0.000
 184.138	 0.532	fixation_cross	0	0	 0.000
 184.670	 0.798	pres	1	0	 2147483.647
 185.468	 1.530	resp	0	0	 0.000
 186.998	 1.330	jitter	0	0	 0.000
 188.328	 0.532	fixation_cross	0	0	 0.000
 188.860	 0.798	pres	1	0	 2147483.647
 189.658	 1.529	resp	0	0	 0.000
 191.187	 1.463	jitter	0	0	 0.000
 192.650	 0.532	fixation_cross	0	0	 0.000
 193.182	 0.798	pres	1	0	 2147483.647
 193.980	 1.530	resp	0	0	 0.000
 195.510	 1.130	jitter	0	0	 0.000
 196.640	 0.532	fixation_cross	0	0	 0.000
 197.172	 0.798	pres	1	0	 2147483.647
 197.970	 1.530	resp	0	0	 0.000
 199.500	 1.330	jitter	0	0	 0.000
 200.830	 0.532	fixation_cross	0	0	 0.000
 201.362	 0.798	pres	1	0	 2147483.647
 202.160	 1.529	resp	0	0	 0.000
 203.689	 1.463	jitter	0	0	 0.000
 205.152	 0.532	fixation_cross	0	0	 0.000
 205.684	 0.798	pres	1	0	 2147483.647
 206.482	 1.530	resp	0	0	 0.000
 208.012	 1.130	jitter	0	0	 0.000
 209.142	 0.532	fixation_cross	0	0	 0.000
 209.674	 0.798	pres	1	0	 2147483.647
 210.472	 1.530	resp	0	0	 0.000
 212.002	 1.330	jitter	0	0	 0.000
 213.332	 0.532	fixation_cross	0	0	 0.000
 213.864	 0.798	pres	1	0	 2147483.647
 214.662	 1.529	resp	0	0	 0.000
 216.191	 0.931	jitter	0	0	 0.000
 217.122	 0.532	fixation_cross	0	0	 0.000
 217.654	 0.798	pres	1	0	 2147483.647
 218.452	 1.530	resp	0	0	 0.000
 219.982	 1.064	jitter	0	0	 0.000
 221.046	 0.532	fixation_cross	0	0	 0.000
 221.578	 0.798	pres	1	0	 2147483.647
 222.376	 1.530	resp	0	0	 0.000
 223.906	 1.130	jitter	0	0	 0.000
 225.036	 0.532	fixation_cross	0	0	 0.000
 225.568	 0.798	pres	1	0	 2147483.647
 226.366	 1.530	resp	0	0	 0.000
 227.896	 1.262	jitter	0	0	 0.000
 229.158	 0.533	fixation_cross	0	0	 0.000
 229.691	 0.798	pres	1	0	 2147483.647
 230.489	 1.529	resp	0	0	 0.000
 232.018	 0.931	jitter	0	0	 0.000
 232.949	 0.532	fixation_cross	0	0	 0.000
 233.481	 0.798	pres	1	0	 2147483.647
 234.279	 1.530	resp	0	0	 0.000
 235.809	 1.063	jitter	0	0	 0.000
 236.872	 0.533	fixation_cross	0	0	 0.000
 237.405	 0.798	pres	1	0	 2147483.647
 238.203	 1.529	resp	0	0	 0.000
 239.732	 1.064	jitter	0	0	 0.000
 240.796	 0.532	fixation_cross	0	0	 0.000
 241.328	 0.798	pres	1	0	 2147483.647
 242.126	 1.530	resp	0	0	 0.000
 243.656	 1.463	jitter	0	0	 0.000
 245.119	 0.532	fixation_cross	0	0	 0.000
 245.651	 0.798	pres	1	0	 2147483.647
 246.449	 1.529	resp	0	0	 0.000
 247.978	 1.131	jitter	0	0	 0.000
 249.109	 0.532	fixation_cross	0	0	 0.000
 249.641	 0.798	pres	1	0	 2147483.647
 250.439	 1.529	resp	0	0	 0.000
 251.968	 0.931	jitter	0	0	 0.000
 252.899	 0.532	fixation_cross	0	0	 0.000
 253.431	 0.799	pres	1	0	 2147483.647
 254.230	 1.529	resp	0	0	 0.000
 255.759	 1.263	jitter	0	0	 0.000
 257.022	 0.532	fixation_cross	0	0	 0.000
 257.554	 0.798	pres	1	0	 2147483.647
 258.352	 1.530	resp	0	0	 0.000
 259.882	 1.263	jitter	0	0	 0.000
 261.145	 0.532	fixation_cross	0	0	 0.000
 261.677	 0.798	pres	1	0	 2147483.647
 262.475	 1.529	resp	0	0	 0.000
 264.004	 1.131	jitter	0	0	 0.000
 265.135	 0.532	fixation_cross	0	0	 0.000
 265.667	 0.798	pres	1	0	 2147483.647
 266.465	 1.530	resp	0	0	 0.000
 267.995	 1.064	jitter	0	0	 0.000
 269.059	 0.532	fixation_cross	0	0	 0.000
 269.591	 0.798	pres	1	0	 2147483.647
 270.389	 1.529	resp	0	0	 0.000
 271.918	 1.131	jitter	0	0	 0.000
 273.049	 0.532	fixation_cross	0	0	 0.000
 273.581	 0.798	pres	1	0	 2147483.647
 274.379	 1.529	resp	0	0	 0.000
 275.908	 1.064	jitter	0	0	 0.000
 276.972	 0.532	fixation_cross	0	0	 0.000
 277.504	 0.798	pres	1	0	 2147483.647
 278.302	 1.530	resp	0	0	 0.000
 279.832	 1.263	jitter	0	0	 0.000
 281.095	 0.532	fixation_cross	0	0	 0.000
 281.627	 0.798	pres	1	0	 2147483.647
 282.425	 1.530	resp	0	0	 0.000
 283.955	 1.330	jitter	0	0	 0.000
 285.285	 0.532	fixation_cross	0	0	 0.000
 285.817	 0.797	pres	1	0	 2147483.647
 286.614	 1.530	resp	0	0	 0.000
 288.144	 1.131	jitter	0	0	 0.000
 289.275	 0.532	fixation_cross	0	0	 0.000
 289.807	 0.798	pres	1	0	 2147483.647
 290.605	 1.529	resp	0	0	 0.000
 292.134	 1.330	jitter	0	0	 0.000
 293.464	 0.532	fixation_cross	0	0	 0.000
 293.996	 0.798	pres	1	0	 2147483.647
 294.794	 1.530	resp	0	0	 0.000
 296.324	 1.063	jitter	0	0	 0.000
 297.387	 0.533	fixation_cross	0	0	 0.000
 297.920	 0.798	pres	1	0	 2147483.647
 298.718	 1.529	resp	0	0	 0.000
 300.247	 1.064	jitter	0	0	 0.000
 301.311	 0.532	fixation_cross	0	0	 0.000
 301.843	 0.798	pres	1	0	 2147483.647
 302.641	 1.530	resp	0	0	 0.000
 304.171	 1.330	jitter	0	0	 0.000
 305.501	 0.532	fixation_cross	0	0	 0.000
 306.033	 0.798	pres	1	0	 2147483.647
 306.831	 1.529	resp	0	0	 0.000
 308.360	 0.931	jitter	0	0	 0.000
 309.291	 0.532	fixation_cross	0	0	 0.000
 309.823	 0.798	pres	1	0	 2147483.647
 310.621	 1.530	resp	0	0	 0.000
 312.151	 1.130	jitter	0	0	 0.000
 313.281	 0.532	fixation_cross	0	0	 0.000
 313.813	 0.798	pres	1	0	 2147483.647
 314.611	 1.530	resp	0	0	 0.000
 316.141	 1.463	jitter	0	0	 0.000
 317.604	 0.532	fixation_cross	0	0	 0.000
 318.136	 0.798	pres	1	0	 2147483.647
 318.934	 1.529	resp	0	0	 0.000
 320.463	 1.064	jitter	0	0	 0.000
 321.527	 0.532	fixation_cross	0	0	 0.000
 322.059	 0.798	pres	1	0	 2147483.647
 322.857	 1.530	resp	0	0	 0.000
 324.387	 1.064	jitter	0	0	 0.000
 325.451	 0.531	fixation_cross	0	0	 0.000
 325.982	 0.798	pres	1	0	 2147483.647
 326.780	 1.530	resp	0	0	 0.000
 328.310	 0.931	jitter	0	0	 0.000
 329.241	 0.532	fixation_cross	0	0	 0.000
 329.773	 0.798	pres	1	0	 2147483.647
 330.571	 1.530	resp	0	0	 0.000
 332.101	 1.463	jitter	0	0	 0.000
 333.564	 0.532	fixation_cross	0	0	 0.000
 334.096	 0.798	pres	1	0	 2147483.647
 334.894	 1.529	resp	0	0	 0.000
 336.423	 1.264	jitter	0	0	 0.000
 337.687	 0.532	fixation_cross	0	0	 0.000
 338.219	 0.798	pres	1	0	 2147483.647
 339.017	 1.529	resp	0	0	 0.000
 340.546	 1.131	jitter	0	0	 0.000
 341.677	 0.532	fixation_cross	0	0	 0.000
 342.209	 0.797	pres	1	0	 2147483.647
 343.006	 1.530	resp	0	0	 0.000
 344.536	 0.931	jitter	0	0	 0.000
 345.467	 0.532	fixation_cross	0	0	 0.000
 345.999	 0.798	pres	1	0	 2147483.647
 346.797	 1.530	resp	0	0	 0.000
 348.327	 1.130	jitter	0	0	 0.000
 349.457	 0.532	fixation_cross	0	0	 0.000
 349.989	 0.798	pres	1	0	 2147483.647
 350.787	 1.529	resp	0	0	 0.000
 352.316	 0.932	jitter	0	0	 0.000
 353.248	 0.532	fixation_cross	0	0	 0.000
 353.780	 0.798	pres	1	0	 2147483.647
 354.578	 1.529	resp	0	0	 0.000
 356.107	 1.064	jitter	0	0	 0.000
 357.171	 0.532	fixation_cross	0	0	 0.000
 357.703	 0.798	pres	1	0	 2147483.647
 358.501	 1.530	resp	0	0	 0.000
 360.031	 1.064	jitter	0	0	 0.000
 361.095	 0.531	fixation_cross	0	0	 0.000
 361.626	 0.798	pres	1	0	 2147483.647
 362.424	 1.530	resp	0	0	 0.000
 363.954	 1.330	jitter	0	0	 0.000
 365.284	 0.532	fixation_cross	0	0	 0.000
 365.816	 0.798	pres	1	0	 2147483.647
 366.614	 1.530	resp	0	0	 0.000
 368.144	 10.906	jitter	0	0	 0.000
