onset	duration	trial_type	expected_response	given_response	response_time
 0.000	 1.995	instruction	0	0	 0.000
 1.995	 1.995	filler	0	0	 0.000
 3.990	 0.532	fixation_cross	0	0	 0.000
 4.522	 0.798	pres	1	0	 2147483.647
 5.320	 1.530	resp	0	0	 0.000
 6.850	 1.064	jitter	0	0	 0.000
 7.914	 0.532	fixation_cross	0	0	 0.000
 8.446	 0.798	pres	1	0	 2147483.647
 9.244	 1.529	resp	0	0	 0.000
 10.773	 1.264	jitter	0	0	 0.000
 12.037	 0.532	fixation_cross	0	0	 0.000
 12.569	 0.798	pres	1	0	 2147483.647
 13.367	 1.529	resp	0	0	 0.000
 14.896	 1.264	jitter	0	0	 0.000
 16.160	 0.532	fixation_cross	0	0	 0.000
 16.692	 0.798	pres	1	0	 2147483.647
 17.490	 1.529	resp	0	0	 0.000
 19.019	 1.264	jitter	0	0	 0.000
 20.283	 0.532	fixation_cross	0	0	 0.000
 20.815	 0.798	pres	1	0	 2147483.647
 21.613	 1.529	resp	0	0	 0.000
 23.142	 1.264	jitter	0	0	 0.000
 24.406	 0.532	fixation_cross	0	0	 0.000
 24.938	 0.798	pres	1	0	 2147483.647
 25.736	 1.529	resp	0	0	 0.000
 27.265	 1.330	jitter	0	0	 0.000
 28.595	 0.532	fixation_cross	0	0	 0.000
 29.127	 0.798	pres	1	0	 2147483.647
 29.925	 1.530	resp	0	0	 0.000
 31.455	 1.330	jitter	0	0	 0.000
 32.785	 0.532	fixation_cross	0	0	 0.000
 33.317	 0.798	pres	1	0	 2147483.647
 34.115	 1.529	resp	0	0	 0.000
 35.644	 1.264	jitter	0	0	 0.000
 36.908	 0.532	fixation_cross	0	0	 0.000
 37.440	 0.798	pres	1	0	 2147483.647
 38.238	 1.529	resp	0	0	 0.000
 39.767	 1.131	jitter	0	0	 0.000
 40.898	 0.532	fixation_cross	0	0	 0.000
 41.430	 0.798	pres	1	0	 2147483.647
 42.228	 1.530	resp	0	0	 0.000
 43.758	 1.263	jitter	0	0	 0.000
 45.021	 0.532	fixation_cross	0	0	 0.000
 45.553	 0.798	pres	1	0	 2147483.647
 46.351	 1.529	resp	0	0	 0.000
 47.880	 1.331	jitter	0	0	 0.000
 49.211	 0.531	fixation_cross	0	0	 0.000
 49.742	 0.798	pres	1	0	 2147483.647
 50.540	 1.530	resp	0	0	 0.000
 52.070	 1.130	jitter	0	0	 0.000
 53.200	 0.532	fixation_cross	0	0	 0.000
 53.732	 0.798	pres	1	0	 2147483.647
 54.530	 1.530	resp	0	0	 0.000
 56.060	 1.463	jitter	0	0	 0.000
 57.523	 0.532	fixation_cross	0	0	 0.000
 58.055	 0.798	pres	1	0	 2147483.647
 58.853	 1.529	resp	0	0	 0.000
 60.382	 1.131	jitter	0	0	 0.000
 61.513	 0.531	fixation_cross	0	0	 0.000
 62.044	 0.799	pres	1	0	 2147483.647
 62.843	 1.529	resp	0	0	 0.000
 64.372	 1.330	jitter	0	0	 0.000
 65.702	 0.532	fixation_cross	0	0	 0.000
 66.234	 0.798	pres	1	0	 2147483.647
 67.032	 1.530	resp	0	0	 0.000
 68.562	 1.330	jitter	0	0	 0.000
 69.892	 0.532	fixation_cross	0	0	 0.000
 70.424	 0.798	pres	1	0	 2147483.647
 71.222	 1.529	resp	0	0	 0.000
 72.751	 0.931	jitter	0	0	 0.000
 73.682	 0.532	fixation_cross	0	0	 0.000
 74.214	 0.798	pres	1	0	 2147483.647
 75.012	 1.530	resp	0	0	 0.000
 76.542	 1.263	jitter	0	0	 0.000
 77.805	 0.532	fixation_cross	0	0	 0.000
 78.337	 0.798	pres	1	0	 2147483.647
 79.135	 1.530	resp	0	0	 0.000
 80.665	 1.463	jitter	0	0	 0.000
 82.128	 0.532	fixation_cross	0	0	 0.000
 82.660	 0.798	pres	1	0	 2147483.647
 83.458	 1.529	resp	0	0	 0.000
 84.987	 1.463	jitter	0	0	 0.000
 86.450	 0.532	fixation_cross	0	0	 0.000
 86.982	 0.798	pres	1	0	 2147483.647
 87.780	 1.530	resp	0	0	 0.000
 89.310	 1.130	jitter	0	0	 0.000
 90.440	 0.532	fixation_cross	0	0	 0.000
 90.972	 0.798	pres	1	0	 2147483.647
 91.770	 1.530	resp	0	0	 0.000
 93.300	 1.130	jitter	0	0	 0.000
 94.430	 0.532	fixation_cross	0	0	 0.000
 94.962	 0.798	pres	1	0	 2147483.647
 95.760	 1.530	resp	0	0	 0.000
 97.290	 0.931	jitter	0	0	 0.000
 98.221	 0.532	fixation_cross	0	0	 0.000
 98.753	 0.798	pres	1	0	 2147483.647
 99.551	 1.529	resp	0	0	 0.000
 101.080	 0.931	jitter	0	0	 0.000
 102.011	 0.532	fixation_cross	0	0	 0.000
 102.543	 0.798	pres	1	0	 2147483.647
 103.341	 1.530	resp	0	0	 0.000
 104.871	 1.329	jitter	0	0	 0.000
 106.200	 0.533	fixation_cross	0	0	 0.000
 106.733	 0.798	pres	1	0	 2147483.647
 107.531	 1.529	resp	0	0	 0.000
 109.060	 1.463	jitter	0	0	 0.000
 110.523	 0.532	fixation_cross	0	0	 0.000
 111.055	 0.798	pres	1	0	 2147483.647
 111.853	 1.530	resp	0	0	 0.000
 113.383	 1.064	jitter	0	0	 0.000
 114.447	 0.532	fixation_cross	0	0	 0.000
 114.979	 0.798	pres	1	0	 2147483.647
 115.777	 1.529	resp	0	0	 0.000
 117.306	 1.330	jitter	0	0	 0.000
 118.636	 0.532	fixation_cross	0	0	 0.000
 119.168	 0.798	pres	1	0	 2147483.647
 119.966	 1.530	resp	0	0	 0.000
 121.496	 1.330	jitter	0	0	 0.000
 122.826	 0.532	fixation_cross	0	0	 0.000
 123.358	 0.798	pres	1	0	 2147483.647
 124.156	 1.529	resp	0	0	 0.000
 125.685	 1.330	jitter	0	0	 0.000
 127.015	 0.532	fixation_cross	0	0	 0.000
 127.547	 0.798	pres	1	0	 2147483.647
 128.345	 1.530	resp	0	0	 0.000
 129.875	 1.130	jitter	0	0	 0.000
 131.005	 0.532	fixation_cross	0	0	 0.000
 131.537	 0.798	pres	1	0	 2147483.647
 132.335	 1.530	resp	0	0	 0.000
 133.865	 1.463	jitter	0	0	 0.000
 135.328	 0.532	fixation_cross	0	0	 0.000
 135.860	 0.798	pres	1	0	 2147483.647
 136.658	 1.529	resp	0	0	 0.000
 138.187	 0.931	jitter	0	0	 0.000
 139.118	 0.532	fixation_cross	0	0	 0.000
 139.650	 0.798	pres	1	0	 2147483.647
 140.448	 1.530	resp	0	0	 0.000
 141.978	 1.463	jitter	0	0	 0.000
 143.441	 0.532	fixation_cross	0	0	 0.000
 143.973	 0.798	pres	1	0	 2147483.647
 144.771	 1.529	resp	0	0	 0.000
 146.300	 0.931	jitter	0	0	 0.000
 147.231	 0.532	fixation_cross	0	0	 0.000
 147.763	 0.798	pres	1	0	 2147483.647
 148.561	 1.530	resp	0	0	 0.000
 150.091	 1.064	jitter	0	0	 0.000
 151.155	 0.532	fixation_cross	0	0	 0.000
 151.687	 0.798	pres	1	0	 2147483.647
 152.485	 1.529	resp	0	0	 0.000
 154.014	 1.330	jitter	0	0	 0.000
 155.344	 0.532	fixation_cross	0	0	 0.000
 155.876	 0.798	pres	1	0	 2147483.647
 156.674	 1.530	resp	0	0	 0.000
 158.204	 1.263	jitter	0	0	 0.000
 159.467	 0.532	fixation_cross	0	0	 0.000
 159.999	 0.798	pres	1	0	 2147483.647
 160.797	 1.530	resp	0	0	 0.000
 162.327	 0.931	jitter	0	0	 0.000
 163.258	 0.532	fixation_cross	0	0	 0.000
 163.790	 0.798	pres	1	0	 2147483.647
 164.588	 1.529	resp	0	0	 0.000
 166.117	 1.064	jitter	0	0	 0.000
 167.181	 0.533	fixation_cross	0	0	 0.000
 167.714	 0.797	pres	1	0	 2147483.647
 168.511	 1.530	resp	0	0	 0.000
 170.041	 0.931	jitter	0	0	 0.000
 170.972	 0.532	fixation_cross	0	0	 0.000
 171.504	 0.798	pres	1	0	 2147483.647
 172.302	 1.529	resp	0	0	 0.000
 173.831	 1.131	jitter	0	0	 0.000
 174.962	 0.532	fixation_cross	0	0	 0.000
 175.494	 0.798	pres	1	0	 2147483.647
 176.292	 1.529	resp	0	0	 0.000
 177.821	 1.064	jitter	0	0	 0.000
 178.885	 0.532	fixation_cross	0	0	 0.000
 179.417	 0.798	pres	1	0	 2147483.647
 180.215	 1.530	resp	0	0	 0.000
 181.745	 1.064	jitter	0	0	 0.000
 182.809	 0.532	fixation_cross	0	0	 0.000
 183.341	 0.798	pres	1	0	 2147483.647
 184.139	 1.529	resp	0	0	 0.000
 185.668	 1.463	jitter	0	0	 0.000
 187.131	 0.532	fixation_cross	0	0	 0.000
 187.663	 0.798	pres	1	0	 2147483.647
 188.461	 1.530	resp	0	0	 0.000
 189.991	 1.064	jitter	0	0	 0.000
 191.055	 0.532	fixation_cross	0	0	 0.000
 191.587	 0.798	pres	1	0	 2147483.647
 192.385	 1.529	resp	0	0	 0.000
 193.914	 0.931	jitter	0	0	 0.000
 194.845	 0.532	fixation_cross	0	0	 0.000
 195.377	 0.798	pres	1	0	 2147483.647
 196.175	 1.530	resp	0	0	 0.000
 197.705	 0.931	jitter	0	0	 0.000
 198.636	 0.531	fixation_cross	0	0	 0.000
 199.167	 0.798	pres	1	0	 2147483.647
 199.965	 1.530	resp	0	0	 0.000
 201.495	 1.330	jitter	0	0	 0.000
 202.825	 0.532	fixation_cross	0	0	 0.000
 203.357	 0.798	pres	1	0	 2147483.647
 204.155	 1.530	resp	0	0	 0.000
 205.685	 1.263	jitter	0	0	 0.000
 206.948	 0.532	fixation_cross	0	0	 0.000
 207.480	 0.798	pres	1	0	 2147483.647
 208.278	 1.530	resp	0	0	 0.000
 209.808	 1.130	jitter	0	0	 0.000
 210.938	 0.532	fixation_cross	0	0	 0.000
 211.470	 0.798	pres	1	0	 2147483.647
 212.268	 1.530	resp	0	0	 0.000
 213.798	 1.263	jitter	0	0	 0.000
 215.061	 0.532	fixation_cross	0	0	 0.000
 215.593	 0.798	pres	1	0	 2147483.647
 216.391	 1.529	resp	0	0	 0.000
 217.920	 1.463	jitter	0	0	 0.000
 219.383	 0.533	fixation_cross	0	0	 0.000
 219.916	 0.798	pres	1	0	 2147483.647
 220.714	 1.529	resp	0	0	 0.000
 222.243	 1.064	jitter	0	0	 0.000
 223.307	 0.532	fixation_cross	0	0	 0.000
 223.839	 0.798	pres	1	0	 2147483.647
 224.637	 1.530	resp	0	0	 0.000
 226.167	 1.130	jitter	0	0	 0.000
 227.297	 0.532	fixation_cross	0	0	 0.000
 227.829	 0.798	pres	1	0	 2147483.647
 228.627	 1.529	resp	0	0	 0.000
 230.156	 0.932	jitter	0	0	 0.000
 231.088	 0.532	fixation_cross	0	0	 0.000
 231.620	 0.797	pres	1	0	 2147483.647
 232.417	 1.530	resp	0	0	 0.000
 233.947	 1.064	jitter	0	0	 0.000
 235.011	 0.532	fixation_cross	0	0	 0.000
 235.543	 0.798	pres	1	0	 2147483.647
 236.341	 1.529	resp	0	0	 0.000
 237.870	 1.464	jitter	0	0	 0.000
 239.334	 0.532	fixation_cross	0	0	 0.000
 239.866	 0.798	pres	1	0	 2147483.647
 240.664	 1.529	resp	0	0	 0.000
 242.193	 1.130	jitter	0	0	 0.000
 243.323	 0.533	fixation_cross	0	0	 0.000
 243.856	 0.798	pres	1	0	 2147483.647
 244.654	 1.529	resp	0	0	 0.000
 246.183	 0.931	jitter	0	0	 0.000
 247.114	 0.532	fixation_cross	0	0	 0.000
 247.646	 0.798	pres	1	0	 2147483.647
 248.444	 1.530	resp	0	0	 0.000
 249.974	 1.063	jitter	0	0	 0.000
 251.037	 0.533	fixation_cross	0	0	 0.000
 251.570	 0.798	pres	1	0	 2147483.647
 252.368	 1.529	resp	0	0	 0.000
 253.897	 1.264	jitter	0	0	 0.000
 255.161	 0.531	fixation_cross	0	0	 0.000
 255.692	 0.798	pres	1	0	 2147483.647
 256.490	 1.530	resp	0	0	 0.000
 258.020	 1.064	jitter	0	0	 0.000
 259.084	 0.532	fixation_cross	0	0	 0.000
 259.616	 0.798	pres	1	0	 2147483.647
 260.414	 1.529	resp	0	0	 0.000
 261.943	 1.131	jitter	0	0	 0.000
 263.074	 0.532	fixation_cross	0	0	 0.000
 263.606	 0.798	pres	1	0	 2147483.647
 264.404	 1.529	resp	0	0	 0.000
 265.933	 1.065	jitter	0	0	 0.000
 266.998	 0.531	fixation_cross	0	0	 0.000
 267.529	 0.799	pres	1	0	 2147483.647
 268.328	 1.529	resp	0	0	 0.000
 269.857	 1.264	jitter	0	0	 0.000
 271.121	 0.532	fixation_cross	0	0	 0.000
 271.653	 0.798	pres	1	0	 2147483.647
 272.451	 1.529	resp	0	0	 0.000
 273.980	 1.130	jitter	0	0	 0.000
 275.110	 0.533	fixation_cross	0	0	 0.000
 275.643	 0.798	pres	1	0	 2147483.647
 276.441	 1.529	resp	0	0	 0.000
 277.970	 1.064	jitter	0	0	 0.000
 279.034	 0.532	fixation_cross	0	0	 0.000
 279.566	 0.798	pres	1	0	 2147483.647
 280.364	 1.530	resp	0	0	 0.000
 281.894	 1.263	jitter	0	0	 0.000
 283.157	 0.532	fixation_cross	0	0	 0.000
 283.689	 0.798	pres	1	0	 2147483.647
 284.487	 1.529	resp	0	0	 0.000
 286.016	 1.331	jitter	0	0	 0.000
 287.347	 0.532	fixation_cross	0	0	 0.000
 287.879	 0.798	pres	1	0	 2147483.647
 288.677	 1.529	resp	0	0	 0.000
 290.206	 1.130	jitter	0	0	 0.000
 291.336	 0.533	fixation_cross	0	0	 0.000
 291.869	 0.798	pres	1	0	 2147483.647
 292.667	 1.529	resp	0	0	 0.000
 294.196	 1.263	jitter	0	0	 0.000
 295.459	 0.532	fixation_cross	0	0	 0.000
 295.991	 0.798	pres	1	0	 2147483.647
 296.789	 1.530	resp	0	0	 0.000
 298.319	 1.463	jitter	0	0	 0.000
 299.782	 0.532	fixation_cross	0	0	 0.000
 300.314	 0.798	pres	1	0	 2147483.647
 301.112	 1.530	resp	0	0	 0.000
 302.642	 1.463	jitter	0	0	 0.000
 304.105	 0.532	fixation_cross	0	0	 0.000
 304.637	 0.798	pres	1	0	 2147483.647
 305.435	 1.529	resp	0	0	 0.000
 306.964	 1.131	jitter	0	0	 0.000
 308.095	 0.532	fixation_cross	0	0	 0.000
 308.627	 0.797	pres	1	0	 2147483.647
 309.424	 1.530	resp	0	0	 0.000
 310.954	 0.931	jitter	0	0	 0.000
 311.885	 0.532	fixation_cross	0	0	 0.000
 312.417	 0.798	pres	1	0	 2147483.647
 313.215	 1.529	resp	0	0	 0.000
 314.744	 1.264	jitter	0	0	 0.000
 316.008	 0.532	fixation_cross	0	0	 0.000
 316.540	 0.798	pres	1	0	 2147483.647
 317.338	 1.530	resp	0	0	 0.000
 318.868	 0.931	jitter	0	0	 0.000
 319.799	 0.532	fixation_cross	0	0	 0.000
 320.331	 0.798	pres	1	0	 2147483.647
 321.129	 1.529	resp	0	0	 0.000
 322.658	 1.330	jitter	0	0	 0.000
 323.988	 0.532	fixation_cross	0	0	 0.000
 324.520	 0.798	pres	1	0	 2147483.647
 325.318	 1.530	resp	0	0	 0.000
 326.848	 1.463	jitter	0	0	 0.000
 328.311	 0.531	fixation_cross	0	0	 0.000
 328.842	 0.799	pres	1	0	 2147483.647
 329.641	 1.529	resp	0	0	 0.000
 331.170	 1.463	jitter	0	0	 0.000
 332.633	 0.532	fixation_cross	0	0	 0.000
 333.165	 0.798	pres	1	0	 2147483.647
 333.963	 1.529	resp	0	0	 0.000
 335.492	 1.065	jitter	0	0	 0.000
 336.557	 0.531	fixation_cross	0	0	 0.000
 337.088	 0.798	pres	1	0	 2147483.647
 337.886	 1.530	resp	0	0	 0.000
 339.416	 1.463	jitter	0	0	 0.000
 340.879	 0.532	fixation_cross	0	0	 0.000
 341.411	 0.798	pres	1	0	 2147483.647
 342.209	 1.530	resp	0	0	 0.000
 343.739	 1.130	jitter	0	0	 0.000
 344.869	 0.532	fixation_cross	0	0	 0.000
 345.401	 0.798	pres	1	0	 2147483.647
 346.199	 1.530	resp	0	0	 0.000
 347.729	 0.930	jitter	0	0	 0.000
 348.659	 0.533	fixation_cross	0	0	 0.000
 349.192	 0.798	pres	1	0	 2147483.647
 349.990	 1.529	resp	0	0	 0.000
 351.519	 1.064	jitter	0	0	 0.000
 352.583	 0.532	fixation_cross	0	0	 0.000
 353.115	 0.798	pres	1	0	 2147483.647
 353.913	 1.530	resp	0	0	 0.000
 355.443	 1.463	jitter	0	0	 0.000
 356.906	 0.532	fixation_cross	0	0	 0.000
 357.438	 0.797	pres	1	0	 2147483.647
 358.235	 1.530	resp	0	0	 0.000
 359.765	 1.330	jitter	0	0	 0.000
 361.095	 0.532	fixation_cross	0	0	 0.000
 361.627	 0.798	pres	1	0	 2147483.647
 362.425	 1.530	resp	0	0	 0.000
 363.955	 1.330	jitter	0	0	 0.000
 365.285	 0.531	fixation_cross	0	0	 0.000
 365.816	 0.798	pres	1	0	 2147483.647
 366.614	 1.530	resp	0	0	 0.000
 368.144	 10.906	jitter	0	0	 0.000
