onset	duration	trial_type	expected_response	given_response	response_time
 0.000	 1.994	instruction	0	0	 0.000
 1.994	 1.996	filler	0	0	 0.000
 3.990	 0.532	fixation_cross	0	0	 0.000
 4.522	 0.798	pres	1	0	 2147483.647
 5.320	 1.529	resp	0	0	 0.000
 6.849	 1.064	jitter	0	0	 0.000
 7.913	 0.532	fixation_cross	0	0	 0.000
 8.445	 0.798	pres	1	0	 2147483.647
 9.243	 1.530	resp	0	0	 0.000
 10.773	 1.463	jitter	0	0	 0.000
 12.236	 0.532	fixation_cross	0	0	 0.000
 12.768	 0.797	pres	1	0	 2147483.647
 13.565	 1.530	resp	0	0	 0.000
 15.095	 1.330	jitter	0	0	 0.000
 16.425	 0.532	fixation_cross	0	0	 0.000
 16.957	 0.798	pres	1	0	 2147483.647
 17.755	 1.530	resp	0	0	 0.000
 19.285	 1.263	jitter	0	0	 0.000
 20.548	 0.532	fixation_cross	0	0	 0.000
 21.080	 0.798	pres	1	0	 2147483.647
 21.878	 1.530	resp	0	0	 0.000
 23.408	 1.330	jitter	0	0	 0.000
 24.738	 0.532	fixation_cross	0	0	 0.000
 25.270	 0.798	pres	1	0	 2147483.647
 26.068	 1.529	resp	0	0	 0.000
 27.597	 1.463	jitter	0	0	 0.000
 29.060	 0.532	fixation_cross	0	0	 0.000
 29.592	 0.798	pres	1	0	 2147483.647
 30.390	 1.530	resp	0	0	 0.000
 31.920	 1.130	jitter	0	0	 0.000
 33.050	 0.532	fixation_cross	0	0	 0.000
 33.582	 0.798	pres	1	0	 2147483.647
 34.380	 1.530	resp	0	0	 0.000
 35.910	 0.931	jitter	0	0	 0.000
 36.841	 0.532	fixation_cross	0	0	 0.000
 37.373	 0.798	pres	1	0	 2147483.647
 38.171	 1.529	resp	0	0	 0.000
 39.700	 1.463	jitter	0	0	 0.000
 41.163	 0.532	fixation_cross	0	0	 0.000
 41.695	 0.798	pres	1	0	 2147483.647
 42.493	 1.530	resp	0	0	 0.000
 44.023	 1.130	jitter	0	0	 0.000
 45.153	 0.532	fixation_cross	0	0	 0.000
 45.685	 0.798	pres	1	0	 2147483.647
 46.483	 1.530	resp	0	0	 0.000
 48.013	 1.264	jitter	0	0	 0.000
 49.277	 0.531	fixation_cross	0	0	 0.000
 49.808	 0.798	pres	1	0	 2147483.647
 50.606	 1.530	resp	0	0	 0.000
 52.136	 1.064	jitter	0	0	 0.000
 53.200	 0.532	fixation_cross	0	0	 0.000
 53.732	 0.797	pres	1	0	 2147483.647
 54.529	 1.530	resp	0	0	 0.000
 56.059	 1.264	jitter	0	0	 0.000
 57.323	 0.532	fixation_cross	0	0	 0.000
 57.855	 0.798	pres	1	0	 2147483.647
 58.653	 1.529	resp	0	0	 0.000
 60.182	 1.131	jitter	0	0	 0.000
 61.313	 0.532	fixation_cross	0	0	 0.000
 61.845	 0.798	pres	1	0	 2147483.647
 62.643	 1.529	resp	0	0	 0.000
 64.172	 1.330	jitter	0	0	 0.000
 65.502	 0.532	fixation_cross	0	0	 0.000
 66.034	 0.798	pres	1	0	 2147483.647
 66.832	 1.530	resp	0	0	 0.000
 68.362	 1.263	jitter	0	0	 0.000
 69.625	 0.532	fixation_cross	0	0	 0.000
 70.157	 0.798	pres	1	0	 2147483.647
 70.955	 1.530	resp	0	0	 0.000
 72.485	 1.463	jitter	0	0	 0.000
 73.948	 0.532	fixation_cross	0	0	 0.000
 74.480	 0.798	pres	1	0	 2147483.647
 75.278	 1.529	resp	0	0	 0.000
 76.807	 1.463	jitter	0	0	 0.000
 78.270	 0.532	fixation_cross	0	0	 0.000
 78.802	 0.798	pres	1	0	 2147483.647
 79.600	 1.530	resp	0	0	 0.000
 81.130	 1.463	jitter	0	0	 0.000
 82.593	 0.532	fixation_cross	0	0	 0.000
 83.125	 0.798	pres	1	0	 2147483.647
 83.923	 1.529	resp	0	0	 0.000
 85.452	 1.463	jitter	0	0	 0.000
 86.915	 0.532	fixation_cross	0	0	 0.000
 87.447	 0.798	pres	1	0	 2147483.647
 88.245	 1.530	resp	0	0	 0.000
 89.775	 1.263	jitter	0	0	 0.000
 91.038	 0.532	fixation_cross	0	0	 0.000
 91.570	 0.798	pres	1	0	 2147483.647
 92.368	 1.530	resp	0	0	 0.000
 93.898	 1.130	jitter	0	0	 0.000
 95.028	 0.532	fixation_cross	0	0	 0.000
 95.560	 0.798	pres	1	0	 2147483.647
 96.358	 1.529	resp	0	0	 0.000
 97.887	 1.131	jitter	0	0	 0.000
 99.018	 0.532	fixation_cross	0	0	 0.000
 99.550	 0.798	pres	1	0	 2147483.647
 100.348	 1.530	resp	0	0	 0.000
 101.878	 0.931	jitter	0	0	 0.000
 102.809	 0.531	fixation_cross	0	0	 0.000
 103.340	 0.798	pres	1	0	 2147483.647
 104.138	 1.530	resp	0	0	 0.000
 105.668	 1.463	jitter	0	0	 0.000
 107.131	 0.532	fixation_cross	0	0	 0.000
 107.663	 0.798	pres	1	0	 2147483.647
 108.461	 1.530	resp	0	0	 0.000
 109.991	 1.130	jitter	0	0	 0.000
 111.121	 0.532	fixation_cross	0	0	 0.000
 111.653	 0.798	pres	1	0	 2147483.647
 112.451	 1.530	resp	0	0	 0.000
 113.981	 0.931	jitter	0	0	 0.000
 114.912	 0.532	fixation_cross	0	0	 0.000
 115.444	 0.799	pres	1	0	 2147483.647
 116.243	 1.528	resp	0	0	 0.000
 117.771	 1.264	jitter	0	0	 0.000
 119.035	 0.532	fixation_cross	0	0	 0.000
 119.567	 0.797	pres	1	0	 2147483.647
 120.364	 1.530	resp	0	0	 0.000
 121.894	 1.064	jitter	0	0	 0.000
 122.958	 0.532	fixation_cross	0	0	 0.000
 123.490	 0.798	pres	1	0	 2147483.647
 124.288	 1.529	resp	0	0	 0.000
 125.817	 1.131	jitter	0	0	 0.000
 126.948	 0.532	fixation_cross	0	0	 0.000
 127.480	 0.798	pres	1	0	 2147483.647
 128.278	 1.530	resp	0	0	 0.000
 129.808	 1.263	jitter	0	0	 0.000
 131.071	 0.532	fixation_cross	0	0	 0.000
 131.603	 0.798	pres	1	0	 2147483.647
 132.401	 1.530	resp	0	0	 0.000
 133.931	 1.329	jitter	0	0	 0.000
 135.260	 0.533	fixation_cross	0	0	 0.000
 135.793	 0.798	pres	1	0	 2147483.647
 136.591	 1.529	resp	0	0	 0.000
 138.120	 1.131	jitter	0	0	 0.000
 139.251	 0.531	fixation_cross	0	0	 0.000
 139.782	 0.798	pres	1	0	 2147483.647
 140.580	 1.530	resp	0	0	 0.000
 142.110	 1.463	jitter	0	0	 0.000
 143.573	 0.532	fixation_cross	0	0	 0.000
 144.105	 0.798	pres	1	0	 2147483.647
 144.903	 1.530	resp	0	0	 0.000
 146.433	 1.463	jitter	0	0	 0.000
 147.896	 0.531	fixation_cross	0	0	 0.000
 148.427	 0.799	pres	1	0	 2147483.647
 149.226	 1.529	resp	0	0	 0.000
 150.755	 1.064	jitter	0	0	 0.000
 151.819	 0.532	fixation_cross	0	0	 0.000
 152.351	 0.798	pres	1	0	 2147483.647
 153.149	 1.530	resp	0	0	 0.000
 154.679	 1.463	jitter	0	0	 0.000
 156.142	 0.532	fixation_cross	0	0	 0.000
 156.674	 0.798	pres	1	0	 2147483.647
 157.472	 1.529	resp	0	0	 0.000
 159.001	 0.931	jitter	0	0	 0.000
 159.932	 0.532	fixation_cross	0	0	 0.000
 160.464	 0.798	pres	1	0	 2147483.647
 161.262	 1.530	resp	0	0	 0.000
 162.792	 0.931	jitter	0	0	 0.000
 163.723	 0.532	fixation_cross	0	0	 0.000
 164.255	 0.798	pres	1	0	 2147483.647
 165.053	 1.529	resp	0	0	 0.000
 166.582	 1.330	jitter	0	0	 0.000
 167.912	 0.532	fixation_cross	0	0	 0.000
 168.444	 0.798	pres	1	0	 2147483.647
 169.242	 1.529	resp	0	0	 0.000
 170.771	 1.331	jitter	0	0	 0.000
 172.102	 0.531	fixation_cross	0	0	 0.000
 172.633	 0.798	pres	1	0	 2147483.647
 173.431	 1.530	resp	0	0	 0.000
 174.961	 1.064	jitter	0	0	 0.000
 176.025	 0.532	fixation_cross	0	0	 0.000
 176.557	 0.798	pres	1	0	 2147483.647
 177.355	 1.529	resp	0	0	 0.000
 178.884	 1.264	jitter	0	0	 0.000
 180.148	 0.532	fixation_cross	0	0	 0.000
 180.680	 0.798	pres	1	0	 2147483.647
 181.478	 1.530	resp	0	0	 0.000
 183.008	 0.930	jitter	0	0	 0.000
 183.938	 0.533	fixation_cross	0	0	 0.000
 184.471	 0.798	pres	1	0	 2147483.647
 185.269	 1.529	resp	0	0	 0.000
 186.798	 1.263	jitter	0	0	 0.000
 188.061	 0.532	fixation_cross	0	0	 0.000
 188.593	 0.798	pres	1	0	 2147483.647
 189.391	 1.530	resp	0	0	 0.000
 190.921	 0.931	jitter	0	0	 0.000
 191.852	 0.532	fixation_cross	0	0	 0.000
 192.384	 0.798	pres	1	0	 2147483.647
 193.182	 1.529	resp	0	0	 0.000
 194.711	 1.264	jitter	0	0	 0.000
 195.975	 0.532	fixation_cross	0	0	 0.000
 196.507	 0.798	pres	1	0	 2147483.647
 197.305	 1.529	resp	0	0	 0.000
 198.834	 0.931	jitter	0	0	 0.000
 199.765	 0.532	fixation_cross	0	0	 0.000
 200.297	 0.798	pres	1	0	 2147483.647
 201.095	 1.530	resp	0	0	 0.000
 202.625	 1.463	jitter	0	0	 0.000
 204.088	 0.532	fixation_cross	0	0	 0.000
 204.620	 0.798	pres	1	0	 2147483.647
 205.418	 1.530	resp	0	0	 0.000
 206.948	 1.063	jitter	0	0	 0.000
 208.011	 0.533	fixation_cross	0	0	 0.000
 208.544	 0.798	pres	1	0	 2147483.647
 209.342	 1.529	resp	0	0	 0.000
 210.871	 1.130	jitter	0	0	 0.000
 212.001	 0.532	fixation_cross	0	0	 0.000
 212.533	 0.798	pres	1	0	 2147483.647
 213.331	 1.530	resp	0	0	 0.000
 214.861	 1.463	jitter	0	0	 0.000
 216.324	 0.532	fixation_cross	0	0	 0.000
 216.856	 0.798	pres	1	0	 2147483.647
 217.654	 1.529	resp	0	0	 0.000
 219.183	 1.131	jitter	0	0	 0.000
 220.314	 0.532	fixation_cross	0	0	 0.000
 220.846	 0.798	pres	1	0	 2147483.647
 221.644	 1.530	resp	0	0	 0.000
 223.174	 1.063	jitter	0	0	 0.000
 224.237	 0.533	fixation_cross	0	0	 0.000
 224.770	 0.798	pres	1	0	 2147483.647
 225.568	 1.529	resp	0	0	 0.000
 227.097	 1.264	jitter	0	0	 0.000
 228.361	 0.531	fixation_cross	0	0	 0.000
 228.892	 0.798	pres	1	0	 2147483.647
 229.690	 1.530	resp	0	0	 0.000
 231.220	 1.463	jitter	0	0	 0.000
 232.683	 0.532	fixation_cross	0	0	 0.000
 233.215	 0.798	pres	1	0	 2147483.647
 234.013	 1.530	resp	0	0	 0.000
 235.543	 1.063	jitter	0	0	 0.000
 236.606	 0.533	fixation_cross	0	0	 0.000
 237.139	 0.798	pres	1	0	 2147483.647
 237.937	 1.529	resp	0	0	 0.000
 239.466	 1.263	jitter	0	0	 0.000
 240.729	 0.532	fixation_cross	0	0	 0.000
 241.261	 0.798	pres	1	0	 2147483.647
 242.059	 1.530	resp	0	0	 0.000
 243.589	 1.064	jitter	0	0	 0.000
 244.653	 0.532	fixation_cross	0	0	 0.000
 245.185	 0.798	pres	1	0	 2147483.647
 245.983	 1.529	resp	0	0	 0.000
 247.512	 1.463	jitter	0	0	 0.000
 248.975	 0.532	fixation_cross	0	0	 0.000
 249.507	 0.799	pres	1	0	 2147483.647
 250.306	 1.529	resp	0	0	 0.000
 251.835	 1.130	jitter	0	0	 0.000
 252.965	 0.533	fixation_cross	0	0	 0.000
 253.498	 0.798	pres	1	0	 2147483.647
 254.296	 1.529	resp	0	0	 0.000
 255.825	 1.130	jitter	0	0	 0.000
 256.955	 0.532	fixation_cross	0	0	 0.000
 257.487	 0.798	pres	1	0	 2147483.647
 258.285	 1.530	resp	0	0	 0.000
 259.815	 1.330	jitter	0	0	 0.000
 261.145	 0.532	fixation_cross	0	0	 0.000
 261.677	 0.798	pres	1	0	 2147483.647
 262.475	 1.529	resp	0	0	 0.000
 264.004	 0.931	jitter	0	0	 0.000
 264.935	 0.532	fixation_cross	0	0	 0.000
 265.467	 0.798	pres	1	0	 2147483.647
 266.265	 1.530	resp	0	0	 0.000
 267.795	 1.131	jitter	0	0	 0.000
 268.926	 0.531	fixation_cross	0	0	 0.000
 269.457	 0.798	pres	1	0	 2147483.647
 270.255	 1.530	resp	0	0	 0.000
 271.785	 1.330	jitter	0	0	 0.000
 273.115	 0.532	fixation_cross	0	0	 0.000
 273.647	 0.798	pres	1	0	 2147483.647
 274.445	 1.530	resp	0	0	 0.000
 275.975	 1.263	jitter	0	0	 0.000
 277.238	 0.532	fixation_cross	0	0	 0.000
 277.770	 0.798	pres	1	0	 2147483.647
 278.568	 1.529	resp	0	0	 0.000
 280.097	 1.065	jitter	0	0	 0.000
 281.162	 0.531	fixation_cross	0	0	 0.000
 281.693	 0.798	pres	1	0	 2147483.647
 282.491	 1.530	resp	0	0	 0.000
 284.021	 1.064	jitter	0	0	 0.000
 285.085	 0.532	fixation_cross	0	0	 0.000
 285.617	 0.798	pres	1	0	 2147483.647
 286.415	 1.529	resp	0	0	 0.000
 287.944	 1.065	jitter	0	0	 0.000
 289.009	 0.532	fixation_cross	0	0	 0.000
 289.541	 0.797	pres	1	0	 2147483.647
 290.338	 1.530	resp	0	0	 0.000
 291.868	 0.931	jitter	0	0	 0.000
 292.799	 0.532	fixation_cross	0	0	 0.000
 293.331	 0.798	pres	1	0	 2147483.647
 294.129	 1.529	resp	0	0	 0.000
 295.658	 0.931	jitter	0	0	 0.000
 296.589	 0.532	fixation_cross	0	0	 0.000
 297.121	 0.798	pres	1	0	 2147483.647
 297.919	 1.530	resp	0	0	 0.000
 299.449	 0.931	jitter	0	0	 0.000
 300.380	 0.532	fixation_cross	0	0	 0.000
 300.912	 0.798	pres	1	0	 2147483.647
 301.710	 1.529	resp	0	0	 0.000
 303.239	 0.931	jitter	0	0	 0.000
 304.170	 0.533	fixation_cross	0	0	 0.000
 304.703	 0.797	pres	1	0	 2147483.647
 305.500	 1.530	resp	0	0	 0.000
 307.030	 1.064	jitter	0	0	 0.000
 308.094	 0.532	fixation_cross	0	0	 0.000
 308.626	 0.798	pres	1	0	 2147483.647
 309.424	 1.529	resp	0	0	 0.000
 310.953	 0.932	jitter	0	0	 0.000
 311.885	 0.532	fixation_cross	0	0	 0.000
 312.417	 0.798	pres	1	0	 2147483.647
 313.215	 1.529	resp	0	0	 0.000
 314.744	 1.330	jitter	0	0	 0.000
 316.074	 0.532	fixation_cross	0	0	 0.000
 316.606	 0.798	pres	1	0	 2147483.647
 317.404	 1.529	resp	0	0	 0.000
 318.933	 1.330	jitter	0	0	 0.000
 320.263	 0.533	fixation_cross	0	0	 0.000
 320.796	 0.798	pres	1	0	 2147483.647
 321.594	 1.529	resp	0	0	 0.000
 323.123	 1.330	jitter	0	0	 0.000
 324.453	 0.532	fixation_cross	0	0	 0.000
 324.985	 0.798	pres	1	0	 2147483.647
 325.783	 1.529	resp	0	0	 0.000
 327.312	 1.331	jitter	0	0	 0.000
 328.643	 0.531	fixation_cross	0	0	 0.000
 329.174	 0.798	pres	1	0	 2147483.647
 329.972	 1.530	resp	0	0	 0.000
 331.502	 1.130	jitter	0	0	 0.000
 332.632	 0.533	fixation_cross	0	0	 0.000
 333.165	 0.798	pres	1	0	 2147483.647
 333.963	 1.529	resp	0	0	 0.000
 335.492	 0.931	jitter	0	0	 0.000
 336.423	 0.532	fixation_cross	0	0	 0.000
 336.955	 0.798	pres	1	0	 2147483.647
 337.753	 1.529	resp	0	0	 0.000
 339.282	 1.131	jitter	0	0	 0.000
 340.413	 0.532	fixation_cross	0	0	 0.000
 340.945	 0.798	pres	1	0	 2147483.647
 341.743	 1.530	resp	0	0	 0.000
 343.273	 1.263	jitter	0	0	 0.000
 344.536	 0.532	fixation_cross	0	0	 0.000
 345.068	 0.798	pres	1	0	 2147483.647
 345.866	 1.529	resp	0	0	 0.000
 347.395	 1.331	jitter	0	0	 0.000
 348.726	 0.531	fixation_cross	0	0	 0.000
 349.257	 0.799	pres	1	0	 2147483.647
 350.056	 1.529	resp	0	0	 0.000
 351.585	 1.263	jitter	0	0	 0.000
 352.848	 0.533	fixation_cross	0	0	 0.000
 353.381	 0.798	pres	1	0	 2147483.647
 354.179	 1.529	resp	0	0	 0.000
 355.708	 1.330	jitter	0	0	 0.000
 357.038	 0.532	fixation_cross	0	0	 0.000
 357.570	 0.798	pres	1	0	 2147483.647
 358.368	 1.529	resp	0	0	 0.000
 359.897	 1.331	jitter	0	0	 0.000
 361.228	 0.531	fixation_cross	0	0	 0.000
 361.759	 0.798	pres	1	0	 2147483.647
 362.557	 1.530	resp	0	0	 0.000
 364.087	 1.064	jitter	0	0	 0.000
 365.151	 0.532	fixation_cross	0	0	 0.000
 365.683	 0.798	pres	1	0	 2147483.647
 366.481	 1.529	resp	0	0	 0.000
 368.010	 11.039	jitter	0	0	 0.000
