onset	duration	trial_type	expected_response	given_response	response_time
 0.000	 1.995	instruction	0	0	 0.000
 1.995	 1.995	filler	0	0	 0.000
 3.990	 0.532	fixation_cross	0	0	 0.000
 4.522	 0.798	pres	1	0	 2147483.647
 5.320	 1.529	resp	0	0	 0.000
 6.849	 1.264	jitter	0	0	 0.000
 8.113	 0.532	fixation_cross	0	0	 0.000
 8.645	 0.798	pres	1	0	 2147483.647
 9.443	 1.529	resp	0	0	 0.000
 10.972	 1.464	jitter	0	0	 0.000
 12.436	 0.531	fixation_cross	0	0	 0.000
 12.967	 0.798	pres	1	0	 2147483.647
 13.765	 1.530	resp	0	0	 0.000
 15.295	 1.463	jitter	0	0	 0.000
 16.758	 0.532	fixation_cross	0	0	 0.000
 17.290	 0.798	pres	1	0	 2147483.647
 18.088	 1.530	resp	0	0	 0.000
 19.618	 1.063	jitter	0	0	 0.000
 20.681	 0.533	fixation_cross	0	0	 0.000
 21.214	 0.797	pres	1	0	 2147483.647
 22.011	 1.530	resp	0	0	 0.000
 23.541	 1.463	jitter	0	0	 0.000
 25.004	 0.532	fixation_cross	0	0	 0.000
 25.536	 0.798	pres	1	0	 2147483.647
 26.334	 1.529	resp	0	0	 0.000
 27.863	 1.330	jitter	0	0	 0.000
 29.193	 0.533	fixation_cross	0	0	 0.000
 29.726	 0.797	pres	1	0	 2147483.647
 30.523	 1.530	resp	0	0	 0.000
 32.053	 1.263	jitter	0	0	 0.000
 33.316	 0.532	fixation_cross	0	0	 0.000
 33.848	 0.798	pres	1	0	 2147483.647
 34.646	 1.530	resp	0	0	 0.000
 36.176	 1.064	jitter	0	0	 0.000
 37.240	 0.532	fixation_cross	0	0	 0.000
 37.772	 0.798	pres	1	0	 2147483.647
 38.570	 1.529	resp	0	0	 0.000
 40.099	 1.064	jitter	0	0	 0.000
 41.163	 0.532	fixation_cross	0	0	 0.000
 41.695	 0.798	pres	1	0	 2147483.647
 42.493	 1.530	resp	0	0	 0.000
 44.023	 1.463	jitter	0	0	 0.000
 45.486	 0.532	fixation_cross	0	0	 0.000
 46.018	 0.798	pres	1	0	 2147483.647
 46.816	 1.529	resp	0	0	 0.000
 48.345	 0.931	jitter	0	0	 0.000
 49.276	 0.532	fixation_cross	0	0	 0.000
 49.808	 0.798	pres	1	0	 2147483.647
 50.606	 1.530	resp	0	0	 0.000
 52.136	 1.330	jitter	0	0	 0.000
 53.466	 0.532	fixation_cross	0	0	 0.000
 53.998	 0.798	pres	1	0	 2147483.647
 54.796	 1.529	resp	0	0	 0.000
 56.325	 1.264	jitter	0	0	 0.000
 57.589	 0.532	fixation_cross	0	0	 0.000
 58.121	 0.798	pres	1	0	 2147483.647
 58.919	 1.529	resp	0	0	 0.000
 60.448	 1.264	jitter	0	0	 0.000
 61.712	 0.532	fixation_cross	0	0	 0.000
 62.244	 0.798	pres	1	0	 2147483.647
 63.042	 1.529	resp	0	0	 0.000
 64.571	 1.463	jitter	0	0	 0.000
 66.034	 0.532	fixation_cross	0	0	 0.000
 66.566	 0.798	pres	1	0	 2147483.647
 67.364	 1.530	resp	0	0	 0.000
 68.894	 1.064	jitter	0	0	 0.000
 69.958	 0.532	fixation_cross	0	0	 0.000
 70.490	 0.798	pres	1	0	 2147483.647
 71.288	 1.529	resp	0	0	 0.000
 72.817	 1.064	jitter	0	0	 0.000
 73.881	 0.532	fixation_cross	0	0	 0.000
 74.413	 0.798	pres	1	0	 2147483.647
 75.211	 1.530	resp	0	0	 0.000
 76.741	 1.064	jitter	0	0	 0.000
 77.805	 0.532	fixation_cross	0	0	 0.000
 78.337	 0.798	pres	1	0	 2147483.647
 79.135	 1.529	resp	0	0	 0.000
 80.664	 1.131	jitter	0	0	 0.000
 81.795	 0.532	fixation_cross	0	0	 0.000
 82.327	 0.798	pres	1	0	 2147483.647
 83.125	 1.529	resp	0	0	 0.000
 84.654	 1.131	jitter	0	0	 0.000
 85.785	 0.532	fixation_cross	0	0	 0.000
 86.317	 0.798	pres	1	0	 2147483.647
 87.115	 1.529	resp	0	0	 0.000
 88.644	 0.931	jitter	0	0	 0.000
 89.575	 0.532	fixation_cross	0	0	 0.000
 90.107	 0.798	pres	1	0	 2147483.647
 90.905	 1.530	resp	0	0	 0.000
 92.435	 0.931	jitter	0	0	 0.000
 93.366	 0.532	fixation_cross	0	0	 0.000
 93.898	 0.798	pres	1	0	 2147483.647
 94.696	 1.529	resp	0	0	 0.000
 96.225	 1.131	jitter	0	0	 0.000
 97.356	 0.532	fixation_cross	0	0	 0.000
 97.888	 0.798	pres	1	0	 2147483.647
 98.686	 1.529	resp	0	0	 0.000
 100.215	 0.931	jitter	0	0	 0.000
 101.146	 0.532	fixation_cross	0	0	 0.000
 101.678	 0.798	pres	1	0	 2147483.647
 102.476	 1.530	resp	0	0	 0.000
 104.006	 1.330	jitter	0	0	 0.000
 105.336	 0.531	fixation_cross	0	0	 0.000
 105.867	 0.799	pres	1	0	 2147483.647
 106.666	 1.529	resp	0	0	 0.000
 108.195	 1.131	jitter	0	0	 0.000
 109.326	 0.532	fixation_cross	0	0	 0.000
 109.858	 0.798	pres	1	0	 2147483.647
 110.656	 1.529	resp	0	0	 0.000
 112.185	 1.330	jitter	0	0	 0.000
 113.515	 0.532	fixation_cross	0	0	 0.000
 114.047	 0.798	pres	1	0	 2147483.647
 114.845	 1.530	resp	0	0	 0.000
 116.375	 1.463	jitter	0	0	 0.000
 117.838	 0.532	fixation_cross	0	0	 0.000
 118.370	 0.798	pres	1	0	 2147483.647
 119.168	 1.529	resp	0	0	 0.000
 120.697	 1.131	jitter	0	0	 0.000
 121.828	 0.532	fixation_cross	0	0	 0.000
 122.360	 0.798	pres	1	0	 2147483.647
 123.158	 1.529	resp	0	0	 0.000
 124.687	 1.131	jitter	0	0	 0.000
 125.818	 0.532	fixation_cross	0	0	 0.000
 126.350	 0.798	pres	1	0	 2147483.647
 127.148	 1.529	resp	0	0	 0.000
 128.677	 0.931	jitter	0	0	 0.000
 129.608	 0.532	fixation_cross	0	0	 0.000
 130.140	 0.798	pres	1	0	 2147483.647
 130.938	 1.530	resp	0	0	 0.000
 132.468	 1.130	jitter	0	0	 0.000
 133.598	 0.532	fixation_cross	0	0	 0.000
 134.130	 0.798	pres	1	0	 2147483.647
 134.928	 1.530	resp	0	0	 0.000
 136.458	 1.263	jitter	0	0	 0.000
 137.721	 0.532	fixation_cross	0	0	 0.000
 138.253	 0.798	pres	1	0	 2147483.647
 139.051	 1.529	resp	0	0	 0.000
 140.580	 1.331	jitter	0	0	 0.000
 141.911	 0.532	fixation_cross	0	0	 0.000
 142.443	 0.798	pres	1	0	 2147483.647
 143.241	 1.529	resp	0	0	 0.000
 144.770	 1.064	jitter	0	0	 0.000
 145.834	 0.532	fixation_cross	0	0	 0.000
 146.366	 0.798	pres	1	0	 2147483.647
 147.164	 1.530	resp	0	0	 0.000
 148.694	 1.064	jitter	0	0	 0.000
 149.758	 0.532	fixation_cross	0	0	 0.000
 150.290	 0.798	pres	1	0	 2147483.647
 151.088	 1.529	resp	0	0	 0.000
 152.617	 0.931	jitter	0	0	 0.000
 153.548	 0.532	fixation_cross	0	0	 0.000
 154.080	 0.798	pres	1	0	 2147483.647
 154.878	 1.530	resp	0	0	 0.000
 156.408	 1.263	jitter	0	0	 0.000
 157.671	 0.532	fixation_cross	0	0	 0.000
 158.203	 0.798	pres	1	0	 2147483.647
 159.001	 1.530	resp	0	0	 0.000
 160.531	 1.463	jitter	0	0	 0.000
 161.994	 0.531	fixation_cross	0	0	 0.000
 162.525	 0.799	pres	1	0	 2147483.647
 163.324	 1.529	resp	0	0	 0.000
 164.853	 1.131	jitter	0	0	 0.000
 165.984	 0.532	fixation_cross	0	0	 0.000
 166.516	 0.798	pres	1	0	 2147483.647
 167.314	 1.529	resp	0	0	 0.000
 168.843	 1.263	jitter	0	0	 0.000
 170.106	 0.533	fixation_cross	0	0	 0.000
 170.639	 0.798	pres	1	0	 2147483.647
 171.437	 1.529	resp	0	0	 0.000
 172.966	 1.130	jitter	0	0	 0.000
 174.096	 0.532	fixation_cross	0	0	 0.000
 174.628	 0.798	pres	1	0	 2147483.647
 175.426	 1.530	resp	0	0	 0.000
 176.956	 1.330	jitter	0	0	 0.000
 178.286	 0.532	fixation_cross	0	0	 0.000
 178.818	 0.798	pres	1	0	 2147483.647
 179.616	 1.530	resp	0	0	 0.000
 181.146	 1.064	jitter	0	0	 0.000
 182.210	 0.532	fixation_cross	0	0	 0.000
 182.742	 0.797	pres	1	0	 2147483.647
 183.539	 1.530	resp	0	0	 0.000
 185.069	 1.463	jitter	0	0	 0.000
 186.532	 0.532	fixation_cross	0	0	 0.000
 187.064	 0.798	pres	1	0	 2147483.647
 187.862	 1.529	resp	0	0	 0.000
 189.391	 1.065	jitter	0	0	 0.000
 190.456	 0.531	fixation_cross	0	0	 0.000
 190.987	 0.798	pres	1	0	 2147483.647
 191.785	 1.530	resp	0	0	 0.000
 193.315	 1.264	jitter	0	0	 0.000
 194.579	 0.532	fixation_cross	0	0	 0.000
 195.111	 0.798	pres	1	0	 2147483.647
 195.909	 1.529	resp	0	0	 0.000
 197.438	 1.463	jitter	0	0	 0.000
 198.901	 0.532	fixation_cross	0	0	 0.000
 199.433	 0.798	pres	1	0	 2147483.647
 200.231	 1.529	resp	0	0	 0.000
 201.760	 1.264	jitter	0	0	 0.000
 203.024	 0.532	fixation_cross	0	0	 0.000
 203.556	 0.798	pres	1	0	 2147483.647
 204.354	 1.529	resp	0	0	 0.000
 205.883	 1.131	jitter	0	0	 0.000
 207.014	 0.532	fixation_cross	0	0	 0.000
 207.546	 0.798	pres	1	0	 2147483.647
 208.344	 1.529	resp	0	0	 0.000
 209.873	 1.131	jitter	0	0	 0.000
 211.004	 0.532	fixation_cross	0	0	 0.000
 211.536	 0.798	pres	1	0	 2147483.647
 212.334	 1.530	resp	0	0	 0.000
 213.864	 1.130	jitter	0	0	 0.000
 214.994	 0.532	fixation_cross	0	0	 0.000
 215.526	 0.798	pres	1	0	 2147483.647
 216.324	 1.529	resp	0	0	 0.000
 217.853	 1.330	jitter	0	0	 0.000
 219.183	 0.532	fixation_cross	0	0	 0.000
 219.715	 0.798	pres	1	0	 2147483.647
 220.513	 1.530	resp	0	0	 0.000
 222.043	 1.330	jitter	0	0	 0.000
 223.373	 0.532	fixation_cross	0	0	 0.000
 223.905	 0.798	pres	1	0	 2147483.647
 224.703	 1.530	resp	0	0	 0.000
 226.233	 1.463	jitter	0	0	 0.000
 227.696	 0.531	fixation_cross	0	0	 0.000
 228.227	 0.798	pres	1	0	 2147483.647
 229.025	 1.530	resp	0	0	 0.000
 230.555	 1.064	jitter	0	0	 0.000
 231.619	 0.532	fixation_cross	0	0	 0.000
 232.151	 0.798	pres	1	0	 2147483.647
 232.949	 1.530	resp	0	0	 0.000
 234.479	 1.462	jitter	0	0	 0.000
 235.941	 0.532	fixation_cross	0	0	 0.000
 236.473	 0.798	pres	1	0	 2147483.647
 237.271	 1.530	resp	0	0	 0.000
 238.801	 1.330	jitter	0	0	 0.000
 240.131	 0.532	fixation_cross	0	0	 0.000
 240.663	 0.798	pres	1	0	 2147483.647
 241.461	 1.529	resp	0	0	 0.000
 242.990	 0.931	jitter	0	0	 0.000
 243.921	 0.532	fixation_cross	0	0	 0.000
 244.453	 0.798	pres	1	0	 2147483.647
 245.251	 1.530	resp	0	0	 0.000
 246.781	 1.463	jitter	0	0	 0.000
 248.244	 0.532	fixation_cross	0	0	 0.000
 248.776	 0.798	pres	1	0	 2147483.647
 249.574	 1.529	resp	0	0	 0.000
 251.103	 1.064	jitter	0	0	 0.000
 252.167	 0.532	fixation_cross	0	0	 0.000
 252.699	 0.798	pres	1	0	 2147483.647
 253.497	 1.530	resp	0	0	 0.000
 255.027	 1.130	jitter	0	0	 0.000
 256.157	 0.532	fixation_cross	0	0	 0.000
 256.689	 0.798	pres	1	0	 2147483.647
 257.487	 1.530	resp	0	0	 0.000
 259.017	 0.930	jitter	0	0	 0.000
 259.947	 0.533	fixation_cross	0	0	 0.000
 260.480	 0.798	pres	1	0	 2147483.647
 261.278	 1.529	resp	0	0	 0.000
 262.807	 1.330	jitter	0	0	 0.000
 264.137	 0.532	fixation_cross	0	0	 0.000
 264.669	 0.798	pres	1	0	 2147483.647
 265.467	 1.530	resp	0	0	 0.000
 266.997	 0.931	jitter	0	0	 0.000
 267.928	 0.532	fixation_cross	0	0	 0.000
 268.460	 0.797	pres	1	0	 2147483.647
 269.257	 1.530	resp	0	0	 0.000
 270.787	 1.330	jitter	0	0	 0.000
 272.117	 0.532	fixation_cross	0	0	 0.000
 272.649	 0.798	pres	1	0	 2147483.647
 273.447	 1.530	resp	0	0	 0.000
 274.977	 0.931	jitter	0	0	 0.000
 275.908	 0.532	fixation_cross	0	0	 0.000
 276.440	 0.798	pres	1	0	 2147483.647
 277.238	 1.529	resp	0	0	 0.000
 278.767	 1.064	jitter	0	0	 0.000
 279.831	 0.532	fixation_cross	0	0	 0.000
 280.363	 0.798	pres	1	0	 2147483.647
 281.161	 1.530	resp	0	0	 0.000
 282.691	 0.931	jitter	0	0	 0.000
 283.622	 0.532	fixation_cross	0	0	 0.000
 284.154	 0.798	pres	1	0	 2147483.647
 284.952	 1.529	resp	0	0	 0.000
 286.481	 1.263	jitter	0	0	 0.000
 287.744	 0.533	fixation_cross	0	0	 0.000
 288.277	 0.798	pres	1	0	 2147483.647
 289.075	 1.529	resp	0	0	 0.000
 290.604	 1.330	jitter	0	0	 0.000
 291.934	 0.532	fixation_cross	0	0	 0.000
 292.466	 0.798	pres	1	0	 2147483.647
 293.264	 1.530	resp	0	0	 0.000
 294.794	 1.462	jitter	0	0	 0.000
 296.256	 0.533	fixation_cross	0	0	 0.000
 296.789	 0.798	pres	1	0	 2147483.647
 297.587	 1.529	resp	0	0	 0.000
 299.116	 1.264	jitter	0	0	 0.000
 300.380	 0.531	fixation_cross	0	0	 0.000
 300.911	 0.798	pres	1	0	 2147483.647
 301.709	 1.530	resp	0	0	 0.000
 303.239	 1.330	jitter	0	0	 0.000
 304.569	 0.532	fixation_cross	0	0	 0.000
 305.101	 0.798	pres	1	0	 2147483.647
 305.899	 1.530	resp	0	0	 0.000
 307.429	 0.931	jitter	0	0	 0.000
 308.360	 0.532	fixation_cross	0	0	 0.000
 308.892	 0.798	pres	1	0	 2147483.647
 309.690	 1.529	resp	0	0	 0.000
 311.219	 0.931	jitter	0	0	 0.000
 312.150	 0.532	fixation_cross	0	0	 0.000
 312.682	 0.798	pres	1	0	 2147483.647
 313.480	 1.530	resp	0	0	 0.000
 315.010	 1.263	jitter	0	0	 0.000
 316.273	 0.532	fixation_cross	0	0	 0.000
 316.805	 0.798	pres	1	0	 2147483.647
 317.603	 1.530	resp	0	0	 0.000
 319.133	 0.931	jitter	0	0	 0.000
 320.064	 0.532	fixation_cross	0	0	 0.000
 320.596	 0.798	pres	1	0	 2147483.647
 321.394	 1.529	resp	0	0	 0.000
 322.923	 1.463	jitter	0	0	 0.000
 324.386	 0.532	fixation_cross	0	0	 0.000
 324.918	 0.798	pres	1	0	 2147483.647
 325.716	 1.529	resp	0	0	 0.000
 327.245	 1.264	jitter	0	0	 0.000
 328.509	 0.532	fixation_cross	0	0	 0.000
 329.041	 0.798	pres	1	0	 2147483.647
 329.839	 1.530	resp	0	0	 0.000
 331.369	 1.463	jitter	0	0	 0.000
 332.832	 0.531	fixation_cross	0	0	 0.000
 333.363	 0.798	pres	1	0	 2147483.647
 334.161	 1.530	resp	0	0	 0.000
 335.691	 0.931	jitter	0	0	 0.000
 336.622	 0.532	fixation_cross	0	0	 0.000
 337.154	 0.798	pres	1	0	 2147483.647
 337.952	 1.529	resp	0	0	 0.000
 339.481	 1.064	jitter	0	0	 0.000
 340.545	 0.532	fixation_cross	0	0	 0.000
 341.077	 0.798	pres	1	0	 2147483.647
 341.875	 1.530	resp	0	0	 0.000
 343.405	 1.264	jitter	0	0	 0.000
 344.669	 0.532	fixation_cross	0	0	 0.000
 345.201	 0.797	pres	1	0	 2147483.647
 345.998	 1.530	resp	0	0	 0.000
 347.528	 1.330	jitter	0	0	 0.000
 348.858	 0.532	fixation_cross	0	0	 0.000
 349.390	 0.798	pres	1	0	 2147483.647
 350.188	 1.530	resp	0	0	 0.000
 351.718	 1.130	jitter	0	0	 0.000
 352.848	 0.532	fixation_cross	0	0	 0.000
 353.380	 0.798	pres	1	0	 2147483.647
 354.178	 1.529	resp	0	0	 0.000
 355.707	 1.331	jitter	0	0	 0.000
 357.038	 0.531	fixation_cross	0	0	 0.000
 357.569	 0.798	pres	1	0	 2147483.647
 358.367	 1.530	resp	0	0	 0.000
 359.897	 1.131	jitter	0	0	 0.000
 361.028	 0.532	fixation_cross	0	0	 0.000
 361.560	 0.798	pres	1	0	 2147483.647
 362.358	 1.529	resp	0	0	 0.000
 363.887	 1.064	jitter	0	0	 0.000
 364.951	 0.532	fixation_cross	0	0	 0.000
 365.483	 0.798	pres	1	0	 2147483.647
 366.281	 1.530	resp	0	0	 0.000
 367.811	 11.903	jitter	0	0	 0.000
