onset	duration	trial_type	expected_response	given_response	response_time
 0.000	 1.996	instruction	0	0	 0.000
 1.996	 1.994	filler	0	0	 0.000
 3.990	 0.533	fixation_cross	0	0	 0.000
 4.523	 0.797	pres	1	0	 2147483.647
 5.320	 1.530	resp	0	0	 0.000
 6.850	 1.463	jitter	0	0	 0.000
 8.313	 0.532	fixation_cross	0	0	 0.000
 8.845	 0.798	pres	1	0	 2147483.647
 9.643	 1.529	resp	0	0	 0.000
 11.172	 1.463	jitter	0	0	 0.000
 12.635	 0.532	fixation_cross	0	0	 0.000
 13.167	 0.798	pres	1	0	 2147483.647
 13.965	 1.530	resp	0	0	 0.000
 15.495	 0.930	jitter	0	0	 0.000
 16.425	 0.533	fixation_cross	0	0	 0.000
 16.958	 0.798	pres	1	0	 2147483.647
 17.756	 1.529	resp	0	0	 0.000
 19.285	 1.263	jitter	0	0	 0.000
 20.548	 0.532	fixation_cross	0	0	 0.000
 21.080	 0.799	pres	1	0	 2147483.647
 21.879	 1.529	resp	0	0	 0.000
 23.408	 0.931	jitter	0	0	 0.000
 24.339	 0.532	fixation_cross	0	0	 0.000
 24.871	 0.798	pres	1	0	 2147483.647
 25.669	 1.530	resp	0	0	 0.000
 27.199	 1.130	jitter	0	0	 0.000
 28.329	 0.532	fixation_cross	0	0	 0.000
 28.861	 0.798	pres	1	0	 2147483.647
 29.659	 1.529	resp	0	0	 0.000
 31.188	 1.264	jitter	0	0	 0.000
 32.452	 0.532	fixation_cross	0	0	 0.000
 32.984	 0.798	pres	1	0	 2147483.647
 33.782	 1.530	resp	0	0	 0.000
 35.312	 1.329	jitter	0	0	 0.000
 36.641	 0.533	fixation_cross	0	0	 0.000
 37.174	 0.798	pres	1	0	 2147483.647
 37.972	 1.530	resp	0	0	 0.000
 39.502	 1.129	jitter	0	0	 0.000
 40.631	 0.532	fixation_cross	0	0	 0.000
 41.163	 0.799	pres	1	0	 2147483.647
 41.962	 1.529	resp	0	0	 0.000
 43.491	 1.064	jitter	0	0	 0.000
 44.555	 0.532	fixation_cross	0	0	 0.000
 45.087	 0.798	pres	1	0	 2147483.647
 45.885	 1.530	resp	0	0	 0.000
 47.415	 1.263	jitter	0	0	 0.000
 48.678	 0.532	fixation_cross	0	0	 0.000
 49.210	 0.798	pres	1	0	 2147483.647
 50.008	 1.530	resp	0	0	 0.000
 51.538	 0.931	jitter	0	0	 0.000
 52.469	 0.532	fixation_cross	0	0	 0.000
 53.001	 0.797	pres	1	0	 2147483.647
 53.798	 1.530	resp	0	0	 0.000
 55.328	 1.131	jitter	0	0	 0.000
 56.459	 0.532	fixation_cross	0	0	 0.000
 56.991	 0.798	pres	1	0	 2147483.647
 57.789	 1.529	resp	0	0	 0.000
 59.318	 1.131	jitter	0	0	 0.000
 60.449	 0.532	fixation_cross	0	0	 0.000
 60.981	 0.798	pres	1	0	 2147483.647
 61.779	 1.529	resp	0	0	 0.000
 63.308	 0.931	jitter	0	0	 0.000
 64.239	 0.532	fixation_cross	0	0	 0.000
 64.771	 0.798	pres	1	0	 2147483.647
 65.569	 1.530	resp	0	0	 0.000
 67.099	 1.130	jitter	0	0	 0.000
 68.229	 0.532	fixation_cross	0	0	 0.000
 68.761	 0.798	pres	1	0	 2147483.647
 69.559	 1.530	resp	0	0	 0.000
 71.089	 0.931	jitter	0	0	 0.000
 72.020	 0.532	fixation_cross	0	0	 0.000
 72.552	 0.798	pres	1	0	 2147483.647
 73.350	 1.529	resp	0	0	 0.000
 74.879	 1.064	jitter	0	0	 0.000
 75.943	 0.532	fixation_cross	0	0	 0.000
 76.475	 0.798	pres	1	0	 2147483.647
 77.273	 1.530	resp	0	0	 0.000
 78.803	 1.130	jitter	0	0	 0.000
 79.933	 0.532	fixation_cross	0	0	 0.000
 80.465	 0.798	pres	1	0	 2147483.647
 81.263	 1.530	resp	0	0	 0.000
 82.793	 1.064	jitter	0	0	 0.000
 83.857	 0.532	fixation_cross	0	0	 0.000
 84.389	 0.798	pres	1	0	 2147483.647
 85.187	 1.529	resp	0	0	 0.000
 86.716	 1.131	jitter	0	0	 0.000
 87.847	 0.531	fixation_cross	0	0	 0.000
 88.378	 0.798	pres	1	0	 2147483.647
 89.176	 1.530	resp	0	0	 0.000
 90.706	 1.330	jitter	0	0	 0.000
 92.036	 0.532	fixation_cross	0	0	 0.000
 92.568	 0.798	pres	1	0	 2147483.647
 93.366	 1.530	resp	0	0	 0.000
 94.896	 1.329	jitter	0	0	 0.000
 96.225	 0.533	fixation_cross	0	0	 0.000
 96.758	 0.798	pres	1	0	 2147483.647
 97.556	 1.529	resp	0	0	 0.000
 99.085	 1.064	jitter	0	0	 0.000
 100.149	 0.532	fixation_cross	0	0	 0.000
 100.681	 0.798	pres	1	0	 2147483.647
 101.479	 1.530	resp	0	0	 0.000
 103.009	 1.064	jitter	0	0	 0.000
 104.073	 0.531	fixation_cross	0	0	 0.000
 104.604	 0.798	pres	1	0	 2147483.647
 105.402	 1.530	resp	0	0	 0.000
 106.932	 1.463	jitter	0	0	 0.000
 108.395	 0.532	fixation_cross	0	0	 0.000
 108.927	 0.798	pres	1	0	 2147483.647
 109.725	 1.529	resp	0	0	 0.000
 111.254	 1.064	jitter	0	0	 0.000
 112.318	 0.532	fixation_cross	0	0	 0.000
 112.850	 0.798	pres	1	0	 2147483.647
 113.648	 1.530	resp	0	0	 0.000
 115.178	 1.130	jitter	0	0	 0.000
 116.308	 0.533	fixation_cross	0	0	 0.000
 116.841	 0.797	pres	1	0	 2147483.647
 117.638	 1.530	resp	0	0	 0.000
 119.168	 1.130	jitter	0	0	 0.000
 120.298	 0.532	fixation_cross	0	0	 0.000
 120.830	 0.798	pres	1	0	 2147483.647
 121.628	 1.530	resp	0	0	 0.000
 123.158	 1.064	jitter	0	0	 0.000
 124.222	 0.532	fixation_cross	0	0	 0.000
 124.754	 0.798	pres	1	0	 2147483.647
 125.552	 1.529	resp	0	0	 0.000
 127.081	 1.330	jitter	0	0	 0.000
 128.411	 0.533	fixation_cross	0	0	 0.000
 128.944	 0.797	pres	1	0	 2147483.647
 129.741	 1.537	resp	0	0	 0.000
 131.278	 1.456	jitter	0	0	 0.000
 132.734	 0.532	fixation_cross	0	0	 0.000
 133.266	 0.798	pres	1	0	 2147483.647
 134.064	 1.530	resp	0	0	 0.000
 135.594	 0.931	jitter	0	0	 0.000
 136.525	 0.531	fixation_cross	0	0	 0.000
 137.056	 0.798	pres	1	0	 2147483.647
 137.854	 1.530	resp	0	0	 0.000
 139.384	 1.463	jitter	0	0	 0.000
 140.847	 0.531	fixation_cross	0	0	 0.000
 141.378	 0.799	pres	1	0	 2147483.647
 142.177	 1.529	resp	0	0	 0.000
 143.706	 1.331	jitter	0	0	 0.000
 145.037	 0.531	fixation_cross	0	0	 0.000
 145.568	 0.799	pres	1	0	 2147483.647
 146.367	 1.529	resp	0	0	 0.000
 147.896	 1.064	jitter	0	0	 0.000
 148.960	 0.532	fixation_cross	0	0	 0.000
 149.492	 0.798	pres	1	0	 2147483.647
 150.290	 1.529	resp	0	0	 0.000
 151.819	 1.463	jitter	0	0	 0.000
 153.282	 0.533	fixation_cross	0	0	 0.000
 153.815	 0.797	pres	1	0	 2147483.647
 154.612	 1.529	resp	0	0	 0.000
 156.141	 1.464	jitter	0	0	 0.000
 157.605	 0.532	fixation_cross	0	0	 0.000
 158.137	 0.798	pres	1	0	 2147483.647
 158.935	 1.529	resp	0	0	 0.000
 160.464	 1.064	jitter	0	0	 0.000
 161.528	 0.532	fixation_cross	0	0	 0.000
 162.060	 0.799	pres	1	0	 2147483.647
 162.859	 1.529	resp	0	0	 0.000
 164.388	 1.330	jitter	0	0	 0.000
 165.718	 0.532	fixation_cross	0	0	 0.000
 166.250	 0.798	pres	1	0	 2147483.647
 167.048	 1.529	resp	0	0	 0.000
 168.577	 1.264	jitter	0	0	 0.000
 169.841	 0.532	fixation_cross	0	0	 0.000
 170.373	 0.798	pres	1	0	 2147483.647
 171.171	 1.529	resp	0	0	 0.000
 172.700	 0.931	jitter	0	0	 0.000
 173.631	 0.532	fixation_cross	0	0	 0.000
 174.163	 0.798	pres	1	0	 2147483.647
 174.961	 1.530	resp	0	0	 0.000
 176.491	 1.462	jitter	0	0	 0.000
 177.953	 0.532	fixation_cross	0	0	 0.000
 178.485	 0.798	pres	1	0	 2147483.647
 179.283	 1.530	resp	0	0	 0.000
 180.813	 1.264	jitter	0	0	 0.000
 182.077	 0.532	fixation_cross	0	0	 0.000
 182.609	 0.798	pres	1	0	 2147483.647
 183.407	 1.530	resp	0	0	 0.000
 184.937	 1.130	jitter	0	0	 0.000
 186.067	 0.532	fixation_cross	0	0	 0.000
 186.599	 0.798	pres	1	0	 2147483.647
 187.397	 1.529	resp	0	0	 0.000
 188.926	 1.463	jitter	0	0	 0.000
 190.389	 0.532	fixation_cross	0	0	 0.000
 190.921	 0.798	pres	1	0	 2147483.647
 191.719	 1.530	resp	0	0	 0.000
 193.249	 1.463	jitter	0	0	 0.000
 194.712	 0.531	fixation_cross	0	0	 0.000
 195.243	 0.799	pres	1	0	 2147483.647
 196.042	 1.529	resp	0	0	 0.000
 197.571	 0.931	jitter	0	0	 0.000
 198.502	 0.532	fixation_cross	0	0	 0.000
 199.034	 0.799	pres	1	0	 2147483.647
 199.833	 1.529	resp	0	0	 0.000
 201.362	 1.330	jitter	0	0	 0.000
 202.692	 0.531	fixation_cross	0	0	 0.000
 203.223	 0.799	pres	1	0	 2147483.647
 204.022	 1.529	resp	0	0	 0.000
 205.551	 1.463	jitter	0	0	 0.000
 207.014	 0.532	fixation_cross	0	0	 0.000
 207.546	 0.799	pres	1	0	 2147483.647
 208.345	 1.529	resp	0	0	 0.000
 209.874	 1.463	jitter	0	0	 0.000
 211.337	 0.532	fixation_cross	0	0	 0.000
 211.869	 0.798	pres	1	0	 2147483.647
 212.667	 1.530	resp	0	0	 0.000
 214.197	 1.130	jitter	0	0	 0.000
 215.327	 0.532	fixation_cross	0	0	 0.000
 215.859	 0.798	pres	1	0	 2147483.647
 216.657	 1.530	resp	0	0	 0.000
 218.187	 1.462	jitter	0	0	 0.000
 219.649	 0.532	fixation_cross	0	0	 0.000
 220.181	 0.798	pres	1	0	 2147483.647
 220.979	 1.530	resp	0	0	 0.000
 222.509	 1.330	jitter	0	0	 0.000
 223.839	 0.532	fixation_cross	0	0	 0.000
 224.371	 0.798	pres	1	0	 2147483.647
 225.169	 1.529	resp	0	0	 0.000
 226.698	 1.263	jitter	0	0	 0.000
 227.961	 0.533	fixation_cross	0	0	 0.000
 228.494	 0.798	pres	1	0	 2147483.647
 229.292	 1.529	resp	0	0	 0.000
 230.821	 1.264	jitter	0	0	 0.000
 232.085	 0.532	fixation_cross	0	0	 0.000
 232.617	 0.798	pres	1	0	 2147483.647
 233.415	 1.529	resp	0	0	 0.000
 234.944	 1.263	jitter	0	0	 0.000
 236.207	 0.533	fixation_cross	0	0	 0.000
 236.740	 0.798	pres	1	0	 2147483.647
 237.538	 1.529	resp	0	0	 0.000
 239.067	 1.064	jitter	0	0	 0.000
 240.131	 0.532	fixation_cross	0	0	 0.000
 240.663	 0.798	pres	1	0	 2147483.647
 241.461	 1.530	resp	0	0	 0.000
 242.991	 0.931	jitter	0	0	 0.000
 243.922	 0.532	fixation_cross	0	0	 0.000
 244.454	 0.797	pres	1	0	 2147483.647
 245.251	 1.530	resp	0	0	 0.000
 246.781	 0.931	jitter	0	0	 0.000
 247.712	 0.532	fixation_cross	0	0	 0.000
 248.244	 0.798	pres	1	0	 2147483.647
 249.042	 1.530	resp	0	0	 0.000
 250.572	 0.930	jitter	0	0	 0.000
 251.502	 0.533	fixation_cross	0	0	 0.000
 252.035	 0.797	pres	1	0	 2147483.647
 252.832	 1.530	resp	0	0	 0.000
 254.362	 1.463	jitter	0	0	 0.000
 255.825	 0.532	fixation_cross	0	0	 0.000
 256.357	 0.797	pres	1	0	 2147483.647
 257.154	 1.531	resp	0	0	 0.000
 258.685	 1.330	jitter	0	0	 0.000
 260.015	 0.532	fixation_cross	0	0	 0.000
 260.547	 0.798	pres	1	0	 2147483.647
 261.345	 1.529	resp	0	0	 0.000
 262.874	 1.063	jitter	0	0	 0.000
 263.937	 0.533	fixation_cross	0	0	 0.000
 264.470	 0.798	pres	1	0	 2147483.647
 265.268	 1.530	resp	0	0	 0.000
 266.798	 1.063	jitter	0	0	 0.000
 267.861	 0.533	fixation_cross	0	0	 0.000
 268.394	 0.798	pres	1	0	 2147483.647
 269.192	 1.529	resp	0	0	 0.000
 270.721	 1.131	jitter	0	0	 0.000
 271.852	 0.532	fixation_cross	0	0	 0.000
 272.384	 0.798	pres	1	0	 2147483.647
 273.182	 1.529	resp	0	0	 0.000
 274.711	 1.064	jitter	0	0	 0.000
 275.775	 0.532	fixation_cross	0	0	 0.000
 276.307	 0.798	pres	1	0	 2147483.647
 277.105	 1.530	resp	0	0	 0.000
 278.635	 1.064	jitter	0	0	 0.000
 279.699	 0.531	fixation_cross	0	0	 0.000
 280.230	 0.799	pres	1	0	 2147483.647
 281.029	 1.529	resp	0	0	 0.000
 282.558	 0.931	jitter	0	0	 0.000
 283.489	 0.532	fixation_cross	0	0	 0.000
 284.021	 0.798	pres	1	0	 2147483.647
 284.819	 1.529	resp	0	0	 0.000
 286.348	 1.131	jitter	0	0	 0.000
 287.479	 0.532	fixation_cross	0	0	 0.000
 288.011	 0.798	pres	1	0	 2147483.647
 288.809	 1.530	resp	0	0	 0.000
 290.339	 1.064	jitter	0	0	 0.000
 291.403	 0.532	fixation_cross	0	0	 0.000
 291.935	 0.798	pres	1	0	 2147483.647
 292.733	 1.528	resp	0	0	 0.000
 294.261	 0.932	jitter	0	0	 0.000
 295.193	 0.532	fixation_cross	0	0	 0.000
 295.725	 0.798	pres	1	0	 2147483.647
 296.523	 1.530	resp	0	0	 0.000
 298.053	 1.330	jitter	0	0	 0.000
 299.383	 0.531	fixation_cross	0	0	 0.000
 299.914	 0.798	pres	1	0	 2147483.647
 300.712	 1.530	resp	0	0	 0.000
 302.242	 1.330	jitter	0	0	 0.000
 303.572	 0.532	fixation_cross	0	0	 0.000
 304.104	 0.798	pres	1	0	 2147483.647
 304.902	 1.530	resp	0	0	 0.000
 306.432	 1.330	jitter	0	0	 0.000
 307.762	 0.532	fixation_cross	0	0	 0.000
 308.294	 0.797	pres	1	0	 2147483.647
 309.091	 1.530	resp	0	0	 0.000
 310.621	 1.463	jitter	0	0	 0.000
 312.084	 0.533	fixation_cross	0	0	 0.000
 312.617	 0.797	pres	1	0	 2147483.647
 313.414	 1.530	resp	0	0	 0.000
 314.944	 1.130	jitter	0	0	 0.000
 316.074	 0.533	fixation_cross	0	0	 0.000
 316.607	 0.797	pres	1	0	 2147483.647
 317.404	 1.530	resp	0	0	 0.000
 318.934	 1.263	jitter	0	0	 0.000
 320.197	 0.534	fixation_cross	0	0	 0.000
 320.731	 0.796	pres	1	0	 2147483.647
 321.527	 1.529	resp	0	0	 0.000
 323.056	 0.932	jitter	0	0	 0.000
 323.988	 0.531	fixation_cross	0	0	 0.000
 324.519	 0.799	pres	1	0	 2147483.647
 325.318	 1.528	resp	0	0	 0.000
 326.846	 0.932	jitter	0	0	 0.000
 327.778	 0.532	fixation_cross	0	0	 0.000
 328.310	 0.798	pres	1	0	 2147483.647
 329.108	 1.529	resp	0	0	 0.000
 330.637	 1.264	jitter	0	0	 0.000
 331.901	 0.531	fixation_cross	0	0	 0.000
 332.432	 0.798	pres	1	0	 2147483.647
 333.230	 1.530	resp	0	0	 0.000
 334.760	 1.263	jitter	0	0	 0.000
 336.023	 0.532	fixation_cross	0	0	 0.000
 336.555	 0.799	pres	1	0	 2147483.647
 337.354	 1.529	resp	0	0	 0.000
 338.883	 1.263	jitter	0	0	 0.000
 340.146	 0.533	fixation_cross	0	0	 0.000
 340.679	 0.797	pres	1	0	 2147483.647
 341.476	 1.530	resp	0	0	 0.000
 343.006	 1.263	jitter	0	0	 0.000
 344.269	 0.533	fixation_cross	0	0	 0.000
 344.802	 0.797	pres	1	0	 2147483.647
 345.599	 1.530	resp	0	0	 0.000
 347.129	 1.263	jitter	0	0	 0.000
 348.392	 0.533	fixation_cross	0	0	 0.000
 348.925	 0.797	pres	1	0	 2147483.647
 349.722	 1.530	resp	0	0	 0.000
 351.252	 1.330	jitter	0	0	 0.000
 352.582	 0.532	fixation_cross	0	0	 0.000
 353.114	 0.798	pres	1	0	 2147483.647
 353.912	 1.530	resp	0	0	 0.000
 355.442	 1.330	jitter	0	0	 0.000
 356.772	 0.532	fixation_cross	0	0	 0.000
 357.304	 0.797	pres	1	0	 2147483.647
 358.101	 1.530	resp	0	0	 0.000
 359.631	 1.130	jitter	0	0	 0.000
 360.761	 0.532	fixation_cross	0	0	 0.000
 361.293	 0.798	pres	1	0	 2147483.647
 362.091	 1.530	resp	0	0	 0.000
 363.621	 1.264	jitter	0	0	 0.000
 364.885	 0.531	fixation_cross	0	0	 0.000
 365.416	 0.799	pres	1	0	 2147483.647
 366.215	 1.529	resp	0	0	 0.000
 367.744	 11.305	jitter	0	0	 0.000
