onset	duration	trial_type	expected_response	given_response	response_time
 0.000	 1.996	instruction	0	0	 0.000
 1.996	 1.995	filler	0	0	 0.000
 3.991	 0.532	fixation_cross	0	0	 0.000
 4.523	 0.798	pres	1	0	 2147483.647
 5.321	 1.529	resp	0	0	 0.000
 6.850	 1.264	jitter	0	0	 0.000
 8.114	 0.531	fixation_cross	0	0	 0.000
 8.645	 0.798	pres	1	0	 2147483.647
 9.443	 1.530	resp	0	0	 0.000
 10.973	 1.463	jitter	0	0	 0.000
 12.436	 0.532	fixation_cross	0	0	 0.000
 12.968	 0.798	pres	1	0	 2147483.647
 13.766	 1.529	resp	0	0	 0.000
 15.295	 1.264	jitter	0	0	 0.000
 16.559	 0.532	fixation_cross	0	0	 0.000
 17.091	 0.799	pres	1	0	 2147483.647
 17.890	 1.529	resp	0	0	 0.000
 19.419	 1.263	jitter	0	0	 0.000
 20.682	 0.532	fixation_cross	0	0	 0.000
 21.214	 0.798	pres	1	0	 2147483.647
 22.012	 1.530	resp	0	0	 0.000
 23.542	 1.264	jitter	0	0	 0.000
 24.806	 0.531	fixation_cross	0	0	 0.000
 25.337	 0.799	pres	1	0	 2147483.647
 26.136	 1.528	resp	0	0	 0.000
 27.664	 1.264	jitter	0	0	 0.000
 28.928	 0.532	fixation_cross	0	0	 0.000
 29.460	 0.799	pres	1	0	 2147483.647
 30.259	 1.529	resp	0	0	 0.000
 31.788	 1.063	jitter	0	0	 0.000
 32.851	 0.532	fixation_cross	0	0	 0.000
 33.383	 0.799	pres	1	0	 2147483.647
 34.182	 1.529	resp	0	0	 0.000
 35.711	 0.931	jitter	0	0	 0.000
 36.642	 0.532	fixation_cross	0	0	 0.000
 37.174	 0.799	pres	1	0	 2147483.647
 37.973	 1.528	resp	0	0	 0.000
 39.501	 1.464	jitter	0	0	 0.000
 40.965	 0.532	fixation_cross	0	0	 0.000
 41.497	 0.797	pres	1	0	 2147483.647
 42.294	 1.530	resp	0	0	 0.000
 43.824	 1.463	jitter	0	0	 0.000
 45.287	 0.532	fixation_cross	0	0	 0.000
 45.819	 0.798	pres	1	0	 2147483.647
 46.617	 1.529	resp	0	0	 0.000
 48.146	 1.264	jitter	0	0	 0.000
 49.410	 0.532	fixation_cross	0	0	 0.000
 49.942	 0.798	pres	1	0	 2147483.647
 50.740	 1.529	resp	0	0	 0.000
 52.269	 0.932	jitter	0	0	 0.000
 53.201	 0.532	fixation_cross	0	0	 0.000
 53.733	 0.798	pres	1	0	 2147483.647
 54.531	 1.529	resp	0	0	 0.000
 56.060	 1.463	jitter	0	0	 0.000
 57.523	 0.532	fixation_cross	0	0	 0.000
 58.055	 0.798	pres	1	0	 2147483.647
 58.853	 1.530	resp	0	0	 0.000
 60.383	 0.931	jitter	0	0	 0.000
 61.314	 0.531	fixation_cross	0	0	 0.000
 61.845	 0.798	pres	1	0	 2147483.647
 62.643	 1.530	resp	0	0	 0.000
 64.173	 1.130	jitter	0	0	 0.000
 65.303	 0.532	fixation_cross	0	0	 0.000
 65.835	 0.798	pres	1	0	 2147483.647
 66.633	 1.530	resp	0	0	 0.000
 68.163	 1.330	jitter	0	0	 0.000
 69.493	 0.532	fixation_cross	0	0	 0.000
 70.025	 0.798	pres	1	0	 2147483.647
 70.823	 1.529	resp	0	0	 0.000
 72.352	 1.330	jitter	0	0	 0.000
 73.682	 0.532	fixation_cross	0	0	 0.000
 74.214	 0.798	pres	1	0	 2147483.647
 75.012	 1.530	resp	0	0	 0.000
 76.542	 1.463	jitter	0	0	 0.000
 78.005	 0.531	fixation_cross	0	0	 0.000
 78.536	 0.799	pres	1	0	 2147483.647
 79.335	 1.529	resp	0	0	 0.000
 80.864	 1.331	jitter	0	0	 0.000
 82.195	 0.531	fixation_cross	0	0	 0.000
 82.726	 0.798	pres	1	0	 2147483.647
 83.524	 1.530	resp	0	0	 0.000
 85.054	 1.330	jitter	0	0	 0.000
 86.384	 0.532	fixation_cross	0	0	 0.000
 86.916	 0.798	pres	1	0	 2147483.647
 87.714	 1.530	resp	0	0	 0.000
 89.244	 0.931	jitter	0	0	 0.000
 90.175	 0.532	fixation_cross	0	0	 0.000
 90.707	 0.798	pres	1	0	 2147483.647
 91.505	 1.529	resp	0	0	 0.000
 93.034	 1.330	jitter	0	0	 0.000
 94.364	 0.532	fixation_cross	0	0	 0.000
 94.896	 0.797	pres	1	0	 2147483.647
 95.693	 1.531	resp	0	0	 0.000
 97.224	 1.463	jitter	0	0	 0.000
 98.687	 0.532	fixation_cross	0	0	 0.000
 99.219	 0.798	pres	1	0	 2147483.647
 100.017	 1.529	resp	0	0	 0.000
 101.546	 1.263	jitter	0	0	 0.000
 102.809	 0.532	fixation_cross	0	0	 0.000
 103.341	 0.798	pres	1	0	 2147483.647
 104.139	 1.529	resp	0	0	 0.000
 105.668	 1.331	jitter	0	0	 0.000
 106.999	 0.531	fixation_cross	0	0	 0.000
 107.530	 0.799	pres	1	0	 2147483.647
 108.329	 1.529	resp	0	0	 0.000
 109.858	 1.130	jitter	0	0	 0.000
 110.988	 0.532	fixation_cross	0	0	 0.000
 111.520	 0.800	pres	1	0	 2147483.647
 112.320	 1.529	resp	0	0	 0.000
 113.849	 1.462	jitter	0	0	 0.000
 115.311	 0.532	fixation_cross	0	0	 0.000
 115.843	 0.798	pres	1	0	 2147483.647
 116.641	 1.530	resp	0	0	 0.000
 118.171	 0.931	jitter	0	0	 0.000
 119.102	 0.532	fixation_cross	0	0	 0.000
 119.634	 0.798	pres	1	0	 2147483.647
 120.432	 1.530	resp	0	0	 0.000
 121.962	 0.930	jitter	0	0	 0.000
 122.892	 0.532	fixation_cross	0	0	 0.000
 123.424	 0.798	pres	1	0	 2147483.647
 124.222	 1.529	resp	0	0	 0.000
 125.751	 1.064	jitter	0	0	 0.000
 126.815	 0.533	fixation_cross	0	0	 0.000
 127.348	 0.798	pres	1	0	 2147483.647
 128.146	 1.529	resp	0	0	 0.000
 129.675	 1.330	jitter	0	0	 0.000
 131.005	 0.533	fixation_cross	0	0	 0.000
 131.538	 0.797	pres	1	0	 2147483.647
 132.335	 1.530	resp	0	0	 0.000
 133.865	 1.463	jitter	0	0	 0.000
 135.328	 0.531	fixation_cross	0	0	 0.000
 135.859	 0.800	pres	1	0	 2147483.647
 136.659	 1.528	resp	0	0	 0.000
 138.187	 1.263	jitter	0	0	 0.000
 139.450	 0.533	fixation_cross	0	0	 0.000
 139.983	 0.798	pres	1	0	 2147483.647
 140.781	 1.530	resp	0	0	 0.000
 142.311	 1.262	jitter	0	0	 0.000
 143.573	 0.533	fixation_cross	0	0	 0.000
 144.106	 0.798	pres	1	0	 2147483.647
 144.904	 1.530	resp	0	0	 0.000
 146.434	 1.130	jitter	0	0	 0.000
 147.564	 0.532	fixation_cross	0	0	 0.000
 148.096	 0.797	pres	1	0	 2147483.647
 148.893	 1.530	resp	0	0	 0.000
 150.423	 1.330	jitter	0	0	 0.000
 151.753	 0.532	fixation_cross	0	0	 0.000
 152.285	 0.798	pres	1	0	 2147483.647
 153.083	 1.530	resp	0	0	 0.000
 154.613	 0.931	jitter	0	0	 0.000
 155.544	 0.532	fixation_cross	0	0	 0.000
 156.076	 0.798	pres	1	0	 2147483.647
 156.874	 1.530	resp	0	0	 0.000
 158.404	 1.064	jitter	0	0	 0.000
 159.468	 0.532	fixation_cross	0	0	 0.000
 160.000	 0.798	pres	1	0	 2147483.647
 160.798	 1.529	resp	0	0	 0.000
 162.327	 1.131	jitter	0	0	 0.000
 163.458	 0.531	fixation_cross	0	0	 0.000
 163.989	 0.798	pres	1	0	 2147483.647
 164.787	 1.530	resp	0	0	 0.000
 166.317	 1.063	jitter	0	0	 0.000
 167.380	 0.533	fixation_cross	0	0	 0.000
 167.913	 0.797	pres	1	0	 2147483.647
 168.710	 1.531	resp	0	0	 0.000
 170.241	 1.462	jitter	0	0	 0.000
 171.703	 0.532	fixation_cross	0	0	 0.000
 172.235	 0.799	pres	1	0	 2147483.647
 173.034	 1.529	resp	0	0	 0.000
 174.563	 1.131	jitter	0	0	 0.000
 175.694	 0.531	fixation_cross	0	0	 0.000
 176.225	 0.798	pres	1	0	 2147483.647
 177.023	 1.529	resp	0	0	 0.000
 178.552	 1.264	jitter	0	0	 0.000
 179.816	 0.533	fixation_cross	0	0	 0.000
 180.349	 0.797	pres	1	0	 2147483.647
 181.146	 1.529	resp	0	0	 0.000
 182.675	 1.463	jitter	0	0	 0.000
 184.138	 0.532	fixation_cross	0	0	 0.000
 184.670	 0.798	pres	1	0	 2147483.647
 185.468	 1.531	resp	0	0	 0.000
 186.999	 1.329	jitter	0	0	 0.000
 188.328	 0.532	fixation_cross	0	0	 0.000
 188.860	 0.799	pres	1	0	 2147483.647
 189.659	 1.530	resp	0	0	 0.000
 191.189	 1.461	jitter	0	0	 0.000
 192.650	 0.533	fixation_cross	0	0	 0.000
 193.183	 0.798	pres	1	0	 2147483.647
 193.981	 1.529	resp	0	0	 0.000
 195.510	 1.131	jitter	0	0	 0.000
 196.641	 0.531	fixation_cross	0	0	 0.000
 197.172	 0.798	pres	1	0	 2147483.647
 197.970	 1.531	resp	0	0	 0.000
 199.501	 1.329	jitter	0	0	 0.000
 200.830	 0.532	fixation_cross	0	0	 0.000
 201.362	 0.799	pres	1	0	 2147483.647
 202.161	 1.529	resp	0	0	 0.000
 203.690	 1.463	jitter	0	0	 0.000
 205.153	 0.531	fixation_cross	0	0	 0.000
 205.684	 0.798	pres	1	0	 2147483.647
 206.482	 1.530	resp	0	0	 0.000
 208.012	 1.131	jitter	0	0	 0.000
 209.143	 0.532	fixation_cross	0	0	 0.000
 209.675	 0.797	pres	1	0	 2147483.647
 210.472	 1.531	resp	0	0	 0.000
 212.003	 1.329	jitter	0	0	 0.000
 213.332	 0.532	fixation_cross	0	0	 0.000
 213.864	 0.798	pres	1	0	 2147483.647
 214.662	 1.529	resp	0	0	 0.000
 216.191	 0.932	jitter	0	0	 0.000
 217.123	 0.531	fixation_cross	0	0	 0.000
 217.654	 0.799	pres	1	0	 2147483.647
 218.453	 0.284	resp	0	0	 0.000
 218.737	 0.318	jitter	0	0	 0.000
 219.055	 0.533	fixation_cross	0	0	 0.000
