onset	duration	trial_type	expected_response	given_response	response_time
 0.000	 1.995	instruction	0	0	 0.000
 1.995	 1.995	filler	0	0	 0.000
 3.990	 0.531	fixation_cross	0	0	 0.000
 4.521	 0.799	pres	1	0	 2147483.647
 5.320	 1.529	resp	0	0	 0.000
 6.849	 0.731	jitter	0	0	 0.000
 7.580	 0.532	fixation_cross	0	0	 0.000
 8.112	 0.798	pres	1	0	 2147483.647
 8.910	 1.530	resp	0	0	 0.000
 10.440	 0.731	jitter	0	0	 0.000
 11.171	 0.533	fixation_cross	0	0	 0.000
 11.704	 0.797	pres	1	0	 2147483.647
 12.501	 1.530	resp	0	0	 0.000
 14.031	 0.865	jitter	0	0	 0.000
 14.896	 0.532	fixation_cross	0	0	 0.000
 15.428	 0.797	pres	1	0	 2147483.647
 16.225	 1.530	resp	0	0	 0.000
 17.755	 0.665	jitter	0	0	 0.000
 18.420	 0.532	fixation_cross	0	0	 0.000
 18.952	 0.797	pres	1	0	 2147483.647
 19.749	 1.531	resp	0	0	 0.000
 21.280	 0.930	jitter	0	0	 0.000
 22.210	 0.532	fixation_cross	0	0	 0.000
 22.742	 0.798	pres	1	0	 2147483.647
 23.540	 1.530	resp	0	0	 0.000
 25.070	 0.931	jitter	0	0	 0.000
 26.001	 0.531	fixation_cross	0	0	 0.000
 26.532	 0.800	pres	1	0	 2147483.647
 27.332	 1.528	resp	0	0	 0.000
 28.860	 0.732	jitter	0	0	 0.000
 29.592	 0.532	fixation_cross	0	0	 0.000
 30.124	 0.798	pres	1	0	 2147483.647
 30.922	 1.529	resp	0	0	 0.000
 32.451	 0.665	jitter	0	0	 0.000
 33.116	 0.533	fixation_cross	0	0	 0.000
 33.649	 0.797	pres	1	0	 2147483.647
 34.446	 1.530	resp	0	0	 0.000
 35.976	 0.864	jitter	0	0	 0.000
 36.840	 0.533	fixation_cross	0	0	 0.000
 37.373	 0.797	pres	1	0	 2147483.647
 38.170	 1.530	resp	0	0	 0.000
 39.700	 0.864	jitter	0	0	 0.000
 40.564	 0.532	fixation_cross	0	0	 0.000
 41.096	 0.798	pres	1	0	 2147483.647
 41.894	 1.530	resp	0	0	 0.000
 43.424	 0.532	jitter	0	0	 0.000
 43.956	 0.532	fixation_cross	0	0	 0.000
 44.488	 0.798	pres	1	0	 2147483.647
 45.286	 1.530	resp	0	0	 0.000
 46.816	 1.064	jitter	0	0	 0.000
 47.880	 0.531	fixation_cross	0	0	 0.000
 48.411	 0.798	pres	1	0	 2147483.647
 49.209	 1.530	resp	0	0	 0.000
 50.739	 1.063	jitter	0	0	 0.000
 51.802	 0.533	fixation_cross	0	0	 0.000
 52.335	 0.798	pres	1	0	 2147483.647
 53.133	 1.530	resp	0	0	 0.000
 54.663	 0.531	jitter	0	0	 0.000
 55.194	 0.532	fixation_cross	0	0	 0.000
 55.726	 0.799	pres	1	0	 2147483.647
 56.525	 1.529	resp	0	0	 0.000
 58.054	 0.931	jitter	0	0	 0.000
 58.985	 0.532	fixation_cross	0	0	 0.000
 59.517	 0.798	pres	1	0	 2147483.647
 60.315	 1.529	resp	0	0	 0.000
 61.844	 0.532	jitter	0	0	 0.000
 62.376	 0.532	fixation_cross	0	0	 0.000
 62.908	 0.799	pres	1	0	 2147483.647
 63.707	 1.529	resp	0	0	 0.000
 65.236	 1.064	jitter	0	0	 0.000
 66.300	 0.532	fixation_cross	0	0	 0.000
 66.832	 0.798	pres	1	0	 2147483.647
 67.630	 1.529	resp	0	0	 0.000
 69.159	 0.665	jitter	0	0	 0.000
 69.824	 9.976	jitter	0	0	 0.000
 79.800	 1.994	instruction	0	0	 0.000
 81.794	 1.995	filler	0	0	 0.000
 83.789	 0.533	fixation_cross	0	0	 0.000
 84.322	 0.797	pres	1	0	 2147483.647
 85.119	 1.530	resp	0	0	 0.000
 86.649	 0.532	jitter	0	0	 0.000
 87.181	 0.532	fixation_cross	0	0	 0.000
 87.713	 0.798	pres	1	0	 2147483.647
 88.511	 1.529	resp	0	0	 0.000
 90.040	 0.732	jitter	0	0	 0.000
 90.772	 0.532	fixation_cross	0	0	 0.000
 91.304	 0.797	pres	1	0	 2147483.647
 92.101	 1.530	resp	0	0	 0.000
 93.631	 0.931	jitter	0	0	 0.000
 94.562	 0.533	fixation_cross	0	0	 0.000
 95.095	 0.797	pres	1	0	 2147483.647
 95.892	 1.529	resp	0	0	 0.000
 97.421	 0.866	jitter	0	0	 0.000
 98.287	 0.531	fixation_cross	0	0	 0.000
 98.818	 0.798	pres	1	0	 2147483.647
 99.616	 1.530	resp	0	0	 0.000
 101.146	 0.864	jitter	0	0	 0.000
 102.010	 0.533	fixation_cross	0	0	 0.000
 102.543	 0.798	pres	1	0	 2147483.647
 103.341	 1.529	resp	0	0	 0.000
 104.870	 0.665	jitter	0	0	 0.000
 105.535	 0.531	fixation_cross	0	0	 0.000
 106.066	 0.799	pres	1	0	 2147483.647
 106.865	 1.529	resp	0	0	 0.000
 108.394	 0.532	jitter	0	0	 0.000
 108.926	 0.532	fixation_cross	0	0	 0.000
 109.458	 0.798	pres	1	0	 2147483.647
 110.256	 1.530	resp	0	0	 0.000
 111.786	 1.064	jitter	0	0	 0.000
 112.850	 0.532	fixation_cross	0	0	 0.000
 113.382	 0.797	pres	1	0	 2147483.647
 114.179	 1.530	resp	0	0	 0.000
 115.709	 1.064	jitter	0	0	 0.000
 116.773	 0.532	fixation_cross	0	0	 0.000
 117.305	 0.799	pres	1	0	 2147483.647
 118.104	 1.529	resp	0	0	 0.000
 119.633	 0.532	jitter	0	0	 0.000
 120.165	 0.532	fixation_cross	0	0	 0.000
 120.697	 0.798	pres	1	0	 2147483.647
 121.495	 1.529	resp	0	0	 0.000
 123.024	 0.665	jitter	0	0	 0.000
 123.689	 0.532	fixation_cross	0	0	 0.000
 124.221	 0.798	pres	1	0	 2147483.647
 125.019	 1.530	resp	0	0	 0.000
 126.549	 0.731	jitter	0	0	 0.000
 127.280	 0.536	fixation_cross	0	0	 0.000
 127.816	 0.795	pres	1	0	 2147483.647
 128.611	 1.529	resp	0	0	 0.000
 130.140	 0.931	jitter	0	0	 0.000
 131.071	 0.531	fixation_cross	0	0	 0.000
 131.602	 0.799	pres	1	0	 2147483.647
 132.401	 1.529	resp	0	0	 0.000
 133.930	 0.732	jitter	0	0	 0.000
 134.662	 0.532	fixation_cross	0	0	 0.000
 135.194	 0.798	pres	1	0	 2147483.647
 135.992	 1.529	resp	0	0	 0.000
 137.521	 0.665	jitter	0	0	 0.000
 138.186	 0.533	fixation_cross	0	0	 0.000
 138.719	 0.798	pres	1	0	 2147483.647
 139.517	 1.530	resp	0	0	 0.000
 141.047	 0.930	jitter	0	0	 0.000
 141.977	 0.531	fixation_cross	0	0	 0.000
 142.508	 0.798	pres	1	0	 2147483.647
 143.306	 1.530	resp	0	0	 0.000
 144.836	 0.865	jitter	0	0	 0.000
 145.701	 0.532	fixation_cross	0	0	 0.000
 146.233	 0.797	pres	1	0	 2147483.647
 147.030	 1.530	resp	0	0	 0.000
 148.560	 1.064	jitter	0	0	 0.000
 149.624	 9.976	jitter	0	0	 0.000
 159.600	 1.994	instruction	0	0	 0.000
 161.594	 1.995	filler	0	0	 0.000
 163.589	 0.532	fixation_cross	0	0	 0.000
 164.121	 0.798	pres	1	0	 2147483.647
 164.919	 1.530	resp	0	0	 0.000
 166.449	 0.864	jitter	0	0	 0.000
 167.313	 0.532	fixation_cross	0	0	 0.000
 167.845	 0.798	pres	1	0	 2147483.647
 168.643	 1.530	resp	0	0	 0.000
 170.173	 0.665	jitter	0	0	 0.000
 170.838	 0.532	fixation_cross	0	0	 0.000
 171.370	 0.798	pres	1	0	 2147483.647
 172.168	 1.529	resp	0	0	 0.000
 173.697	 0.732	jitter	0	0	 0.000
 174.429	 0.531	fixation_cross	0	0	 0.000
 174.960	 0.798	pres	1	0	 2147483.647
 175.758	 1.530	resp	0	0	 0.000
 177.288	 1.064	jitter	0	0	 0.000
 178.352	 0.532	fixation_cross	0	0	 0.000
 178.884	 0.798	pres	1	0	 2147483.647
 179.682	 1.529	resp	0	0	 0.000
 181.211	 0.931	jitter	0	0	 0.000
 182.142	 0.533	fixation_cross	0	0	 0.000
 182.675	 0.798	pres	1	0	 2147483.647
 183.473	 1.530	resp	0	0	 0.000
 185.003	 0.664	jitter	0	0	 0.000
 185.667	 0.532	fixation_cross	0	0	 0.000
 186.199	 0.798	pres	1	0	 2147483.647
 186.997	 1.529	resp	0	0	 0.000
 188.526	 1.065	jitter	0	0	 0.000
 189.591	 0.532	fixation_cross	0	0	 0.000
 190.123	 0.798	pres	1	0	 2147483.647
 190.921	 1.529	resp	0	0	 0.000
 192.450	 1.064	jitter	0	0	 0.000
 193.514	 0.532	fixation_cross	0	0	 0.000
 194.046	 0.798	pres	1	0	 2147483.647
 194.844	 1.530	resp	0	0	 0.000
 196.374	 0.731	jitter	0	0	 0.000
 197.105	 0.532	fixation_cross	0	0	 0.000
 197.637	 0.798	pres	1	0	 2147483.647
 198.435	 1.529	resp	0	0	 0.000
 199.964	 0.533	jitter	0	0	 0.000
 200.497	 0.532	fixation_cross	0	0	 0.000
 201.029	 0.797	pres	1	0	 2147483.647
 201.826	 1.530	resp	0	0	 0.000
 203.356	 0.931	jitter	0	0	 0.000
 204.287	 0.532	fixation_cross	0	0	 0.000
 204.819	 0.798	pres	1	0	 2147483.647
 205.617	 1.530	resp	0	0	 0.000
 207.147	 0.531	jitter	0	0	 0.000
 207.678	 0.533	fixation_cross	0	0	 0.000
 208.211	 0.798	pres	1	0	 2147483.647
 209.009	 1.529	resp	0	0	 0.000
 210.538	 0.865	jitter	0	0	 0.000
 211.403	 0.532	fixation_cross	0	0	 0.000
 211.935	 0.798	pres	1	0	 2147483.647
 212.733	 1.529	resp	0	0	 0.000
 214.262	 0.865	jitter	0	0	 0.000
 215.127	 0.531	fixation_cross	0	0	 0.000
 215.658	 0.799	pres	1	0	 2147483.647
 216.457	 1.529	resp	0	0	 0.000
 217.986	 0.665	jitter	0	0	 0.000
 218.651	 0.532	fixation_cross	0	0	 0.000
 219.183	 0.798	pres	1	0	 2147483.647
 219.981	 1.530	resp	0	0	 0.000
 221.511	 0.532	jitter	0	0	 0.000
 222.043	 0.532	fixation_cross	0	0	 0.000
 222.575	 0.797	pres	1	0	 2147483.647
 223.372	 1.530	resp	0	0	 0.000
 224.902	 0.931	jitter	0	0	 0.000
 225.833	 0.532	fixation_cross	0	0	 0.000
 226.365	 0.798	pres	1	0	 2147483.647
 227.163	 1.529	resp	0	0	 0.000
 228.692	 0.732	jitter	0	0	 0.000
 229.424	 9.975	jitter	0	0	 0.000
 239.399	 1.995	instruction	0	0	 0.000
 241.394	 1.995	filler	0	0	 0.000
 243.389	 0.532	fixation_cross	0	0	 0.000
 243.921	 0.798	pres	1	0	 2147483.647
 244.719	 1.530	resp	0	0	 0.000
 246.249	 0.930	jitter	0	0	 0.000
 247.179	 0.533	fixation_cross	0	0	 0.000
 247.712	 0.798	pres	1	0	 2147483.647
 248.510	 1.529	resp	0	0	 0.000
 250.039	 0.665	jitter	0	0	 0.000
 250.704	 0.532	fixation_cross	0	0	 0.000
 251.236	 0.798	pres	1	0	 2147483.647
 252.034	 1.529	resp	0	0	 0.000
 253.563	 0.865	jitter	0	0	 0.000
 254.428	 0.532	fixation_cross	0	0	 0.000
 254.960	 0.798	pres	1	0	 2147483.647
 255.758	 1.530	resp	0	0	 0.000
 257.288	 0.931	jitter	0	0	 0.000
 258.219	 0.531	fixation_cross	0	0	 0.000
 258.750	 0.799	pres	1	0	 2147483.647
 259.549	 1.529	resp	0	0	 0.000
 261.078	 0.732	jitter	0	0	 0.000
 261.810	 0.531	fixation_cross	0	0	 0.000
 262.341	 0.799	pres	1	0	 2147483.647
 263.140	 1.529	resp	0	0	 0.000
 264.669	 0.532	jitter	0	0	 0.000
 265.201	 0.532	fixation_cross	0	0	 0.000
 265.733	 0.798	pres	1	0	 2147483.647
 266.531	 1.529	resp	0	0	 0.000
 268.060	 0.666	jitter	0	0	 0.000
 268.726	 0.532	fixation_cross	0	0	 0.000
 269.258	 0.798	pres	1	0	 2147483.647
 270.056	 1.529	resp	0	0	 0.000
 271.585	 1.064	jitter	0	0	 0.000
 272.649	 0.532	fixation_cross	0	0	 0.000
 273.181	 0.798	pres	1	0	 2147483.647
 273.979	 1.529	resp	0	0	 0.000
 275.508	 0.533	jitter	0	0	 0.000
 276.041	 0.531	fixation_cross	0	0	 0.000
 276.572	 0.799	pres	1	0	 2147483.647
 277.371	 1.529	resp	0	0	 0.000
 278.900	 1.064	jitter	0	0	 0.000
 279.964	 0.532	fixation_cross	0	0	 0.000
 280.496	 0.798	pres	1	0	 2147483.647
 281.294	 1.530	resp	0	0	 0.000
 282.824	 0.930	jitter	0	0	 0.000
 283.754	 0.533	fixation_cross	0	0	 0.000
 284.287	 0.797	pres	1	0	 2147483.647
 285.084	 1.530	resp	0	0	 0.000
 286.614	 0.865	jitter	0	0	 0.000
 287.479	 0.531	fixation_cross	0	0	 0.000
 288.010	 0.799	pres	1	0	 2147483.647
 288.809	 1.529	resp	0	0	 0.000
 290.338	 0.865	jitter	0	0	 0.000
 291.203	 0.531	fixation_cross	0	0	 0.000
 291.734	 0.798	pres	1	0	 2147483.647
 292.532	 1.530	resp	0	0	 0.000
 294.062	 1.063	jitter	0	0	 0.000
 295.125	 0.533	fixation_cross	0	0	 0.000
 295.658	 0.798	pres	1	0	 2147483.647
 296.456	 1.529	resp	0	0	 0.000
 297.985	 0.532	jitter	0	0	 0.000
 298.517	 0.532	fixation_cross	0	0	 0.000
 299.049	 0.799	pres	1	0	 2147483.647
 299.848	 1.528	resp	0	0	 0.000
 301.376	 0.732	jitter	0	0	 0.000
 302.108	 0.532	fixation_cross	0	0	 0.000
 302.640	 0.798	pres	1	0	 2147483.647
 303.438	 1.529	resp	0	0	 0.000
 304.967	 0.666	jitter	0	0	 0.000
 305.633	 0.532	fixation_cross	0	0	 0.000
 306.165	 0.798	pres	1	0	 2147483.647
 306.963	 1.529	resp	0	0	 0.000
 308.492	 0.732	jitter	0	0	 0.000
 309.224	 9.975	jitter	0	0	 0.000
 319.199	 1.995	instruction	0	0	 0.000
 321.194	 1.994	filler	0	0	 0.000
 323.188	 0.533	fixation_cross	0	0	 0.000
 323.721	 0.798	pres	1	0	 2147483.647
 324.519	 1.529	resp	0	0	 0.000
 326.048	 0.666	jitter	0	0	 0.000
 326.714	 0.531	fixation_cross	0	0	 0.000
 327.245	 0.800	pres	1	0	 2147483.647
 328.045	 1.528	resp	0	0	 0.000
 329.573	 0.731	jitter	0	0	 0.000
 330.304	 0.532	fixation_cross	0	0	 0.000
 330.836	 0.798	pres	1	0	 2147483.647
 331.634	 1.530	resp	0	0	 0.000
 333.164	 0.931	jitter	0	0	 0.000
 334.095	 0.532	fixation_cross	0	0	 0.000
 334.627	 0.797	pres	1	0	 2147483.647
 335.424	 1.530	resp	0	0	 0.000
 336.954	 0.666	jitter	0	0	 0.000
 337.620	 0.531	fixation_cross	0	0	 0.000
 338.151	 0.798	pres	1	0	 2147483.647
 338.949	 1.530	resp	0	0	 0.000
 340.479	 0.931	jitter	0	0	 0.000
 341.410	 0.532	fixation_cross	0	0	 0.000
 341.942	 0.798	pres	1	0	 2147483.647
 342.740	 1.529	resp	0	0	 0.000
 344.269	 0.533	jitter	0	0	 0.000
 344.802	 0.531	fixation_cross	0	0	 0.000
 345.333	 0.798	pres	1	0	 2147483.647
 346.131	 1.530	resp	0	0	 0.000
 347.661	 0.532	jitter	0	0	 0.000
 348.193	 0.532	fixation_cross	0	0	 0.000
 348.725	 0.797	pres	1	0	 2147483.647
 349.522	 1.530	resp	0	0	 0.000
 351.052	 1.065	jitter	0	0	 0.000
 352.117	 0.531	fixation_cross	0	0	 0.000
 352.648	 0.798	pres	1	0	 2147483.647
 353.446	 1.530	resp	0	0	 0.000
 354.976	 1.064	jitter	0	0	 0.000
 356.040	 0.532	fixation_cross	0	0	 0.000
 356.572	 0.797	pres	1	0	 2147483.647
 357.369	 1.530	resp	0	0	 0.000
 358.899	 0.732	jitter	0	0	 0.000
 359.631	 0.532	fixation_cross	0	0	 0.000
 360.163	 0.798	pres	1	0	 2147483.647
 360.961	 1.530	resp	0	0	 0.000
 362.491	 0.531	jitter	0	0	 0.000
 363.022	 0.533	fixation_cross	0	0	 0.000
 363.555	 0.797	pres	1	0	 2147483.647
 364.352	 1.530	resp	0	0	 0.000
 365.882	 0.931	jitter	0	0	 0.000
 366.813	 0.531	fixation_cross	0	0	 0.000
 367.344	 0.799	pres	1	0	 2147483.647
 368.143	 1.530	resp	0	0	 0.000
 369.673	 0.863	jitter	0	0	 0.000
 370.536	 0.533	fixation_cross	0	0	 0.000
 371.069	 0.798	pres	1	0	 2147483.647
 371.867	 1.529	resp	0	0	 0.000
 373.396	 1.064	jitter	0	0	 0.000
 374.460	 0.532	fixation_cross	0	0	 0.000
 374.992	 0.798	pres	1	0	 2147483.647
 375.790	 1.530	resp	0	0	 0.000
 377.320	 0.865	jitter	0	0	 0.000
 378.185	 0.531	fixation_cross	0	0	 0.000
 378.716	 0.798	pres	1	0	 2147483.647
 379.514	 1.530	resp	0	0	 0.000
 381.044	 0.864	jitter	0	0	 0.000
 381.908	 0.533	fixation_cross	0	0	 0.000
 382.441	 0.797	pres	1	0	 2147483.647
 383.238	 1.530	resp	0	0	 0.000
 384.768	 0.731	jitter	0	0	 0.000
 385.499	 0.532	fixation_cross	0	0	 0.000
 386.031	 0.799	pres	1	0	 2147483.647
 386.830	 1.528	resp	0	0	 0.000
 388.358	 0.666	jitter	0	0	 0.000
 389.024	 9.975	jitter	0	0	 0.000
