onset	duration	trial_type	expected_response	given_response	response_time
 0.000	 1.995	instruction	0	0	 0.000
 1.995	 1.995	filler	0	0	 0.000
 3.990	 0.533	fixation_cross	0	0	 0.000
 4.523	 0.797	pres	1	0	 2147483.647
 5.320	 1.530	resp	0	0	 0.000
 6.850	 1.263	jitter	0	0	 0.000
 8.113	 0.532	fixation_cross	0	0	 0.000
 8.645	 0.798	pres	1	0	 2147483.647
 9.443	 1.530	resp	0	0	 0.000
 10.973	 1.063	jitter	0	0	 0.000
 12.036	 0.533	fixation_cross	0	0	 0.000
 12.569	 0.798	pres	1	0	 2147483.647
 13.367	 1.530	resp	0	0	 0.000
 14.897	 0.930	jitter	0	0	 0.000
 15.827	 0.532	fixation_cross	0	0	 0.000
 16.359	 0.798	pres	1	0	 2147483.647
 17.157	 1.530	resp	0	0	 0.000
 18.687	 1.330	jitter	0	0	 0.000
 20.017	 0.532	fixation_cross	0	0	 0.000
 20.549	 0.798	pres	1	0	 2147483.647
 21.347	 1.529	resp	0	0	 0.000
 22.876	 1.263	jitter	0	0	 0.000
 24.139	 0.532	fixation_cross	0	0	 0.000
 24.671	 0.798	pres	1	0	 2147483.647
 25.469	 1.530	resp	0	0	 0.000
 26.999	 1.131	jitter	0	0	 0.000
 28.130	 0.531	fixation_cross	0	0	 0.000
 28.661	 0.799	pres	1	0	 2147483.647
 29.460	 1.529	resp	0	0	 0.000
 30.989	 0.931	jitter	0	0	 0.000
 31.920	 0.532	fixation_cross	0	0	 0.000
 32.452	 0.798	pres	1	0	 2147483.647
 33.250	 1.530	resp	0	0	 0.000
 34.780	 1.064	jitter	0	0	 0.000
 35.844	 0.532	fixation_cross	0	0	 0.000
 36.376	 0.798	pres	1	0	 2147483.647
 37.174	 1.529	resp	0	0	 0.000
 38.703	 1.463	jitter	0	0	 0.000
 40.166	 0.532	fixation_cross	0	0	 0.000
 40.698	 0.798	pres	1	0	 2147483.647
 41.496	 1.529	resp	0	0	 0.000
 43.025	 1.065	jitter	0	0	 0.000
 44.090	 0.532	fixation_cross	0	0	 0.000
 44.622	 0.798	pres	1	0	 2147483.647
 45.420	 1.529	resp	0	0	 0.000
 46.949	 1.131	jitter	0	0	 0.000
 48.080	 0.531	fixation_cross	0	0	 0.000
 48.611	 0.798	pres	1	0	 2147483.647
 49.409	 1.530	resp	0	0	 0.000
 50.939	 1.464	jitter	0	0	 0.000
 52.403	 0.531	fixation_cross	0	0	 0.000
 52.934	 0.799	pres	1	0	 2147483.647
 53.733	 1.529	resp	0	0	 0.000
 55.262	 0.930	jitter	0	0	 0.000
 56.192	 0.532	fixation_cross	0	0	 0.000
 56.724	 0.799	pres	1	0	 2147483.647
 57.523	 1.529	resp	0	0	 0.000
 59.052	 1.130	jitter	0	0	 0.000
 60.182	 0.533	fixation_cross	0	0	 0.000
 60.715	 0.798	pres	1	0	 2147483.647
 61.513	 1.529	resp	0	0	 0.000
 63.042	 1.064	jitter	0	0	 0.000
 64.106	 0.532	fixation_cross	0	0	 0.000
 64.638	 0.798	pres	1	0	 2147483.647
 65.436	 1.529	resp	0	0	 0.000
 66.965	 1.463	jitter	0	0	 0.000
 68.428	 0.533	fixation_cross	0	0	 0.000
 68.961	 0.798	pres	1	0	 2147483.647
 69.759	 1.529	resp	0	0	 0.000
 71.288	 1.463	jitter	0	0	 0.000
 72.751	 0.532	fixation_cross	0	0	 0.000
 73.283	 0.798	pres	1	0	 2147483.647
 74.081	 1.530	resp	0	0	 0.000
 75.611	 0.931	jitter	0	0	 0.000
 76.542	 0.533	fixation_cross	0	0	 0.000
 77.075	 0.797	pres	1	0	 2147483.647
 77.872	 1.529	resp	0	0	 0.000
 79.401	 1.263	jitter	0	0	 0.000
 80.664	 0.532	fixation_cross	0	0	 0.000
 81.196	 0.798	pres	1	0	 2147483.647
 81.994	 1.530	resp	0	0	 0.000
 83.524	 1.463	jitter	0	0	 0.000
 84.987	 0.532	fixation_cross	0	0	 0.000
 85.519	 0.798	pres	1	0	 2147483.647
 86.317	 1.529	resp	0	0	 0.000
 87.846	 0.932	jitter	0	0	 0.000
 88.778	 0.531	fixation_cross	0	0	 0.000
 89.309	 0.798	pres	1	0	 2147483.647
 90.107	 1.530	resp	0	0	 0.000
 91.637	 1.330	jitter	0	0	 0.000
 92.967	 0.532	fixation_cross	0	0	 0.000
 93.499	 0.798	pres	1	0	 2147483.647
 94.297	 1.530	resp	0	0	 0.000
 95.827	 1.330	jitter	0	0	 0.000
 97.157	 0.531	fixation_cross	0	0	 0.000
 97.688	 0.799	pres	1	0	 2147483.647
 98.487	 1.529	resp	0	0	 0.000
 100.016	 1.264	jitter	0	0	 0.000
 101.280	 0.531	fixation_cross	0	0	 0.000
 101.811	 0.799	pres	1	0	 2147483.647
 102.610	 1.529	resp	0	0	 0.000
 104.139	 1.263	jitter	0	0	 0.000
 105.402	 0.532	fixation_cross	0	0	 0.000
 105.934	 0.798	pres	1	0	 2147483.647
 106.732	 1.530	resp	0	0	 0.000
 108.262	 1.330	jitter	0	0	 0.000
 109.592	 0.531	fixation_cross	0	0	 0.000
 110.123	 0.799	pres	1	0	 2147483.647
 110.922	 1.530	resp	0	0	 0.000
 112.452	 1.462	jitter	0	0	 0.000
 113.914	 0.532	fixation_cross	0	0	 0.000
 114.446	 0.799	pres	1	0	 2147483.647
 115.245	 1.529	resp	0	0	 0.000
 116.774	 1.330	jitter	0	0	 0.000
 118.104	 0.532	fixation_cross	0	0	 0.000
 118.636	 0.798	pres	1	0	 2147483.647
 119.434	 1.529	resp	0	0	 0.000
 120.963	 1.064	jitter	0	0	 0.000
 122.027	 0.532	fixation_cross	0	0	 0.000
 122.559	 0.799	pres	1	0	 2147483.647
 123.358	 1.529	resp	0	0	 0.000
 124.887	 1.064	jitter	0	0	 0.000
 125.951	 0.532	fixation_cross	0	0	 0.000
 126.483	 0.798	pres	1	0	 2147483.647
 127.281	 1.529	resp	0	0	 0.000
 128.810	 0.932	jitter	0	0	 0.000
 129.742	 0.531	fixation_cross	0	0	 0.000
 130.273	 0.799	pres	1	0	 2147483.647
 131.072	 1.529	resp	0	0	 0.000
 132.601	 1.064	jitter	0	0	 0.000
 133.665	 0.532	fixation_cross	0	0	 0.000
 134.197	 0.798	pres	1	0	 2147483.647
 134.995	 1.530	resp	0	0	 0.000
 136.525	 1.462	jitter	0	0	 0.000
 137.987	 0.532	fixation_cross	0	0	 0.000
 138.519	 0.798	pres	1	0	 2147483.647
 139.317	 1.530	resp	0	0	 0.000
 140.847	 1.063	jitter	0	0	 0.000
 141.910	 0.533	fixation_cross	0	0	 0.000
 142.443	 0.798	pres	1	0	 2147483.647
 143.241	 1.529	resp	0	0	 0.000
 144.770	 0.931	jitter	0	0	 0.000
 145.701	 0.532	fixation_cross	0	0	 0.000
 146.233	 0.799	pres	1	0	 2147483.647
 147.032	 1.529	resp	0	0	 0.000
 148.561	 1.130	jitter	0	0	 0.000
 149.691	 0.533	fixation_cross	0	0	 0.000
 150.224	 0.797	pres	1	0	 2147483.647
 151.021	 1.530	resp	0	0	 0.000
 152.551	 1.330	jitter	0	0	 0.000
 153.881	 0.532	fixation_cross	0	0	 0.000
 154.413	 0.797	pres	1	0	 2147483.647
 155.210	 1.530	resp	0	0	 0.000
 156.740	 1.330	jitter	0	0	 0.000
 158.070	 0.532	fixation_cross	0	0	 0.000
 158.602	 0.798	pres	1	0	 2147483.647
 159.400	 1.530	resp	0	0	 0.000
 160.930	 1.329	jitter	0	0	 0.000
 162.259	 0.533	fixation_cross	0	0	 0.000
 162.792	 0.798	pres	1	0	 2147483.647
 163.590	 1.529	resp	0	0	 0.000
 165.119	 1.464	jitter	0	0	 0.000
 166.583	 0.531	fixation_cross	0	0	 0.000
 167.114	 0.798	pres	1	0	 2147483.647
 167.912	 1.530	resp	0	0	 0.000
 169.442	 1.063	jitter	0	0	 0.000
 170.505	 0.532	fixation_cross	0	0	 0.000
 171.037	 0.799	pres	1	0	 2147483.647
 171.836	 1.529	resp	0	0	 0.000
 173.365	 1.330	jitter	0	0	 0.000
 174.695	 0.532	fixation_cross	0	0	 0.000
 175.227	 0.798	pres	1	0	 2147483.647
 176.025	 1.530	resp	0	0	 0.000
 177.555	 1.131	jitter	0	0	 0.000
 178.686	 0.531	fixation_cross	0	0	 0.000
 179.217	 0.798	pres	1	0	 2147483.647
 180.015	 1.529	resp	0	0	 0.000
 181.544	 1.065	jitter	0	0	 0.000
 182.609	 0.531	fixation_cross	0	0	 0.000
 183.140	 0.799	pres	1	0	 2147483.647
 183.939	 1.529	resp	0	0	 0.000
 185.468	 1.463	jitter	0	0	 0.000
 186.931	 0.532	fixation_cross	0	0	 0.000
 187.463	 0.798	pres	1	0	 2147483.647
 188.261	 1.530	resp	0	0	 0.000
 189.791	 1.064	jitter	0	0	 0.000
 190.855	 0.532	fixation_cross	0	0	 0.000
 191.387	 0.798	pres	1	0	 2147483.647
 192.185	 1.529	resp	0	0	 0.000
 193.714	 1.264	jitter	0	0	 0.000
 194.978	 0.531	fixation_cross	0	0	 0.000
 195.509	 0.799	pres	1	0	 2147483.647
 196.308	 1.529	resp	0	0	 0.000
 197.837	 0.931	jitter	0	0	 0.000
 198.768	 0.532	fixation_cross	0	0	 0.000
 199.300	 0.799	pres	1	0	 2147483.647
 200.099	 1.529	resp	0	0	 0.000
 201.628	 1.462	jitter	0	0	 0.000
 203.090	 0.533	fixation_cross	0	0	 0.000
 203.623	 0.798	pres	1	0	 2147483.647
 204.421	 1.529	resp	0	0	 0.000
 205.950	 1.330	jitter	0	0	 0.000
 207.280	 0.533	fixation_cross	0	0	 0.000
 207.813	 0.797	pres	1	0	 2147483.647
 208.610	 1.530	resp	0	0	 0.000
 210.140	 1.262	jitter	0	0	 0.000
 211.402	 0.533	fixation_cross	0	0	 0.000
 211.935	 0.798	pres	1	0	 2147483.647
 212.733	 1.530	resp	0	0	 0.000
 214.263	 1.263	jitter	0	0	 0.000
 215.526	 0.532	fixation_cross	0	0	 0.000
 216.058	 0.798	pres	1	0	 2147483.647
 216.856	 1.530	resp	0	0	 0.000
 218.386	 1.263	jitter	0	0	 0.000
 219.649	 0.532	fixation_cross	0	0	 0.000
 220.181	 0.798	pres	1	0	 2147483.647
 220.979	 1.530	resp	0	0	 0.000
 222.509	 1.130	jitter	0	0	 0.000
 223.639	 0.532	fixation_cross	0	0	 0.000
 224.171	 0.798	pres	1	0	 2147483.647
 224.969	 1.530	resp	0	0	 0.000
 226.499	 0.930	jitter	0	0	 0.000
 227.429	 0.532	fixation_cross	0	0	 0.000
 227.961	 0.798	pres	1	0	 2147483.647
 228.759	 1.530	resp	0	0	 0.000
 230.289	 1.131	jitter	0	0	 0.000
 231.420	 0.532	fixation_cross	0	0	 0.000
 231.952	 0.797	pres	1	0	 2147483.647
 232.749	 1.530	resp	0	0	 0.000
 234.279	 1.134	jitter	0	0	 0.000
 235.413	 0.528	fixation_cross	0	0	 0.000
 235.941	 0.799	pres	1	0	 2147483.647
 236.740	 1.529	resp	0	0	 0.000
 238.269	 1.131	jitter	0	0	 0.000
 239.400	 0.532	fixation_cross	0	0	 0.000
 239.932	 0.797	pres	1	0	 2147483.647
 240.729	 1.530	resp	0	0	 0.000
 242.259	 1.130	jitter	0	0	 0.000
 243.389	 0.533	fixation_cross	0	0	 0.000
 243.922	 0.798	pres	1	0	 2147483.647
 244.720	 1.529	resp	0	0	 0.000
 246.249	 1.263	jitter	0	0	 0.000
 247.512	 0.532	fixation_cross	0	0	 0.000
 248.044	 0.798	pres	1	0	 2147483.647
 248.842	 1.530	resp	0	0	 0.000
 250.372	 1.463	jitter	0	0	 0.000
 251.835	 0.532	fixation_cross	0	0	 0.000
 252.367	 0.798	pres	1	0	 2147483.647
 253.165	 1.529	resp	0	0	 0.000
 254.694	 1.331	jitter	0	0	 0.000
 256.025	 0.532	fixation_cross	0	0	 0.000
 256.557	 0.797	pres	1	0	 2147483.647
 257.354	 1.530	resp	0	0	 0.000
 258.884	 1.463	jitter	0	0	 0.000
 260.347	 0.532	fixation_cross	0	0	 0.000
 260.879	 0.798	pres	1	0	 2147483.647
 261.677	 1.529	resp	0	0	 0.000
 263.206	 1.330	jitter	0	0	 0.000
 264.536	 0.532	fixation_cross	0	0	 0.000
 265.068	 0.798	pres	1	0	 2147483.647
 265.866	 1.530	resp	0	0	 0.000
 267.396	 1.330	jitter	0	0	 0.000
 268.726	 0.532	fixation_cross	0	0	 0.000
 269.258	 0.798	pres	1	0	 2147483.647
 270.056	 1.529	resp	0	0	 0.000
 271.585	 1.264	jitter	0	0	 0.000
 272.849	 0.532	fixation_cross	0	0	 0.000
 273.381	 0.798	pres	1	0	 2147483.647
 274.179	 1.529	resp	0	0	 0.000
 275.708	 1.264	jitter	0	0	 0.000
 276.972	 0.532	fixation_cross	0	0	 0.000
 277.504	 0.798	pres	1	0	 2147483.647
 278.302	 1.529	resp	0	0	 0.000
 279.831	 1.464	jitter	0	0	 0.000
 281.295	 0.532	fixation_cross	0	0	 0.000
 281.827	 0.797	pres	1	0	 2147483.647
 282.624	 1.530	resp	0	0	 0.000
 284.154	 1.131	jitter	0	0	 0.000
 285.285	 0.531	fixation_cross	0	0	 0.000
 285.816	 0.799	pres	1	0	 2147483.647
 286.615	 1.528	resp	0	0	 0.000
 288.143	 1.463	jitter	0	0	 0.000
 289.606	 0.533	fixation_cross	0	0	 0.000
 290.139	 0.798	pres	1	0	 2147483.647
 290.937	 1.529	resp	0	0	 0.000
 292.466	 1.264	jitter	0	0	 0.000
 293.730	 0.533	fixation_cross	0	0	 0.000
 294.263	 0.797	pres	1	0	 2147483.647
 295.060	 1.529	resp	0	0	 0.000
 296.589	 1.464	jitter	0	0	 0.000
 298.053	 0.531	fixation_cross	0	0	 0.000
 298.584	 0.798	pres	1	0	 2147483.647
 299.382	 1.530	resp	0	0	 0.000
 300.912	 1.330	jitter	0	0	 0.000
 302.242	 0.532	fixation_cross	0	0	 0.000
 302.774	 0.798	pres	1	0	 2147483.647
 303.572	 1.529	resp	0	0	 0.000
 305.101	 1.131	jitter	0	0	 0.000
 306.232	 0.531	fixation_cross	0	0	 0.000
 306.763	 0.800	pres	1	0	 2147483.647
 307.563	 1.528	resp	0	0	 0.000
 309.091	 0.931	jitter	0	0	 0.000
 310.022	 0.532	fixation_cross	0	0	 0.000
 310.554	 0.798	pres	1	0	 2147483.647
 311.352	 1.530	resp	0	0	 0.000
 312.882	 1.064	jitter	0	0	 0.000
 313.946	 0.532	fixation_cross	0	0	 0.000
 314.478	 0.798	pres	1	0	 2147483.647
 315.276	 1.529	resp	0	0	 0.000
 316.805	 0.931	jitter	0	0	 0.000
 317.736	 0.532	fixation_cross	0	0	 0.000
 318.268	 0.798	pres	1	0	 2147483.647
 319.066	 1.529	resp	0	0	 0.000
 320.595	 0.932	jitter	0	0	 0.000
 321.527	 0.532	fixation_cross	0	0	 0.000
 322.059	 0.798	pres	1	0	 2147483.647
 322.857	 1.529	resp	0	0	 0.000
 324.386	 0.931	jitter	0	0	 0.000
 325.317	 0.532	fixation_cross	0	0	 0.000
 325.849	 0.799	pres	1	0	 2147483.647
 326.648	 1.528	resp	0	0	 0.000
 328.176	 1.065	jitter	0	0	 0.000
 329.241	 0.531	fixation_cross	0	0	 0.000
 329.772	 0.799	pres	1	0	 2147483.647
 330.571	 1.529	resp	0	0	 0.000
 332.100	 1.264	jitter	0	0	 0.000
 333.364	 0.532	fixation_cross	0	0	 0.000
 333.896	 0.798	pres	1	0	 2147483.647
 334.694	 1.529	resp	0	0	 0.000
 336.223	 1.064	jitter	0	0	 0.000
 337.287	 0.532	fixation_cross	0	0	 0.000
 337.819	 0.798	pres	1	0	 2147483.647
 338.617	 1.530	resp	0	0	 0.000
 340.147	 1.064	jitter	0	0	 0.000
 341.211	 0.532	fixation_cross	0	0	 0.000
 341.743	 0.798	pres	1	0	 2147483.647
 342.541	 1.529	resp	0	0	 0.000
 344.070	 1.130	jitter	0	0	 0.000
 345.200	 0.532	fixation_cross	0	0	 0.000
 345.732	 0.799	pres	1	0	 2147483.647
 346.531	 1.529	resp	0	0	 0.000
 348.060	 0.931	jitter	0	0	 0.000
 348.991	 0.532	fixation_cross	0	0	 0.000
 349.523	 0.798	pres	1	0	 2147483.647
 350.321	 1.529	resp	0	0	 0.000
 351.850	 1.264	jitter	0	0	 0.000
 353.114	 0.532	fixation_cross	0	0	 0.000
 353.646	 0.799	pres	1	0	 2147483.647
 354.445	 1.529	resp	0	0	 0.000
 355.974	 1.130	jitter	0	0	 0.000
 357.104	 0.532	fixation_cross	0	0	 0.000
 357.636	 0.798	pres	1	0	 2147483.647
 358.434	 1.530	resp	0	0	 0.000
 359.964	 0.931	jitter	0	0	 0.000
 360.895	 0.532	fixation_cross	0	0	 0.000
 361.427	 0.797	pres	1	0	 2147483.647
 362.224	 1.530	resp	0	0	 0.000
 363.754	 1.130	jitter	0	0	 0.000
 364.884	 0.533	fixation_cross	0	0	 0.000
 365.417	 0.797	pres	1	0	 2147483.647
 366.214	 1.530	resp	0	0	 0.000
 367.744	 11.305	jitter	0	0	 0.000
