onset	duration	trial_type	expected_response	given_response	response_time
 0.000	 1.995	instruction	0	0	 0.000
 1.995	 1.995	filler	0	0	 0.000
 3.990	 0.531	fixation_cross	0	0	 0.000
 4.521	 0.798	pres	1	0	 2147483.647
 5.319	 1.530	resp	0	0	 0.000
 6.849	 1.264	jitter	0	0	 0.000
 8.113	 0.532	fixation_cross	0	0	 0.000
 8.645	 0.798	pres	1	0	 2147483.647
 9.443	 1.529	resp	0	0	 0.000
 10.972	 1.330	jitter	0	0	 0.000
 12.302	 0.532	fixation_cross	0	0	 0.000
 12.834	 0.798	pres	1	0	 2147483.647
 13.632	 1.530	resp	0	0	 0.000
 15.162	 1.330	jitter	0	0	 0.000
 16.492	 0.531	fixation_cross	0	0	 0.000
 17.023	 0.798	pres	1	0	 2147483.647
 17.821	 1.530	resp	0	0	 0.000
 19.351	 1.463	jitter	0	0	 0.000
 20.814	 0.532	fixation_cross	0	0	 0.000
 21.346	 0.798	pres	1	0	 2147483.647
 22.144	 1.530	resp	0	0	 0.000
 23.674	 1.463	jitter	0	0	 0.000
 25.137	 0.532	fixation_cross	0	0	 0.000
 25.669	 0.798	pres	1	0	 2147483.647
 26.467	 1.529	resp	0	0	 0.000
 27.996	 1.064	jitter	0	0	 0.000
 29.060	 0.532	fixation_cross	0	0	 0.000
 29.592	 0.798	pres	1	0	 2147483.647
 30.390	 1.530	resp	0	0	 0.000
 31.920	 1.462	jitter	0	0	 0.000
 33.382	 0.532	fixation_cross	0	0	 0.000
 33.914	 0.798	pres	1	0	 2147483.647
 34.712	 1.530	resp	0	0	 0.000
 36.242	 1.131	jitter	0	0	 0.000
 37.373	 0.531	fixation_cross	0	0	 0.000
 37.904	 0.798	pres	1	0	 2147483.647
 38.702	 1.530	resp	0	0	 0.000
 40.232	 1.330	jitter	0	0	 0.000
 41.562	 0.532	fixation_cross	0	0	 0.000
 42.094	 0.798	pres	1	0	 2147483.647
 42.892	 1.530	resp	0	0	 0.000
 44.422	 1.329	jitter	0	0	 0.000
 45.751	 0.532	fixation_cross	0	0	 0.000
 46.283	 0.798	pres	1	0	 2147483.647
 47.081	 1.530	resp	0	0	 0.000
 48.611	 0.931	jitter	0	0	 0.000
 49.542	 0.532	fixation_cross	0	0	 0.000
 50.074	 0.798	pres	1	0	 2147483.647
 50.872	 1.529	resp	0	0	 0.000
 52.401	 0.931	jitter	0	0	 0.000
 53.332	 0.532	fixation_cross	0	0	 0.000
 53.864	 0.798	pres	1	0	 2147483.647
 54.662	 1.530	resp	0	0	 0.000
 56.192	 1.330	jitter	0	0	 0.000
 57.522	 0.532	fixation_cross	0	0	 0.000
 58.054	 0.798	pres	1	0	 2147483.647
 58.852	 1.529	resp	0	0	 0.000
 60.381	 1.131	jitter	0	0	 0.000
 61.512	 0.532	fixation_cross	0	0	 0.000
 62.044	 0.798	pres	1	0	 2147483.647
 62.842	 1.529	resp	0	0	 0.000
 64.371	 1.463	jitter	0	0	 0.000
 65.834	 0.532	fixation_cross	0	0	 0.000
 66.366	 0.798	pres	1	0	 2147483.647
 67.164	 1.530	resp	0	0	 0.000
 68.694	 1.130	jitter	0	0	 0.000
 69.824	 0.532	fixation_cross	0	0	 0.000
 70.356	 0.798	pres	1	0	 2147483.647
 71.154	 1.530	resp	0	0	 0.000
 72.684	 0.931	jitter	0	0	 0.000
 73.615	 0.532	fixation_cross	0	0	 0.000
 74.147	 0.798	pres	1	0	 2147483.647
 74.945	 1.529	resp	0	0	 0.000
 76.474	 0.931	jitter	0	0	 0.000
 77.405	 0.532	fixation_cross	0	0	 0.000
 77.937	 0.798	pres	1	0	 2147483.647
 78.735	 1.530	resp	0	0	 0.000
 80.265	 1.064	jitter	0	0	 0.000
 81.329	 0.532	fixation_cross	0	0	 0.000
 81.861	 0.798	pres	1	0	 2147483.647
 82.659	 1.529	resp	0	0	 0.000
 84.188	 1.330	jitter	0	0	 0.000
 85.518	 0.532	fixation_cross	0	0	 0.000
 86.050	 0.798	pres	1	0	 2147483.647
 86.848	 1.530	resp	0	0	 0.000
 88.378	 1.263	jitter	0	0	 0.000
 89.641	 0.532	fixation_cross	0	0	 0.000
 90.173	 0.798	pres	1	0	 2147483.647
 90.971	 1.530	resp	0	0	 0.000
 92.501	 1.130	jitter	0	0	 0.000
 93.631	 0.532	fixation_cross	0	0	 0.000
 94.163	 0.798	pres	1	0	 2147483.647
 94.961	 1.530	resp	0	0	 0.000
 96.491	 1.463	jitter	0	0	 0.000
 97.954	 0.532	fixation_cross	0	0	 0.000
 98.486	 0.798	pres	1	0	 2147483.647
 99.284	 1.529	resp	0	0	 0.000
 100.813	 1.264	jitter	0	0	 0.000
 102.077	 0.532	fixation_cross	0	0	 0.000
 102.609	 0.798	pres	1	0	 2147483.647
 103.407	 1.529	resp	0	0	 0.000
 104.936	 1.330	jitter	0	0	 0.000
 106.266	 0.532	fixation_cross	0	0	 0.000
 106.798	 0.798	pres	1	0	 2147483.647
 107.596	 1.530	resp	0	0	 0.000
 109.126	 0.931	jitter	0	0	 0.000
 110.057	 0.531	fixation_cross	0	0	 0.000
 110.588	 0.798	pres	1	0	 2147483.647
 111.386	 1.530	resp	0	0	 0.000
 112.916	 1.463	jitter	0	0	 0.000
 114.379	 0.532	fixation_cross	0	0	 0.000
 114.911	 0.798	pres	1	0	 2147483.647
 115.709	 1.530	resp	0	0	 0.000
 117.239	 0.931	jitter	0	0	 0.000
 118.170	 0.532	fixation_cross	0	0	 0.000
 118.702	 0.798	pres	1	0	 2147483.647
 119.500	 1.529	resp	0	0	 0.000
 121.029	 1.064	jitter	0	0	 0.000
 122.093	 0.532	fixation_cross	0	0	 0.000
 122.625	 0.798	pres	1	0	 2147483.647
 123.423	 1.530	resp	0	0	 0.000
 124.953	 1.263	jitter	0	0	 0.000
 126.216	 0.532	fixation_cross	0	0	 0.000
 126.748	 0.798	pres	1	0	 2147483.647
 127.546	 1.529	resp	0	0	 0.000
 129.075	 0.931	jitter	0	0	 0.000
 130.006	 0.533	fixation_cross	0	0	 0.000
 130.539	 0.797	pres	1	0	 2147483.647
 131.336	 1.530	resp	0	0	 0.000
 132.866	 1.330	jitter	0	0	 0.000
 134.196	 0.532	fixation_cross	0	0	 0.000
 134.728	 0.798	pres	1	0	 2147483.647
 135.526	 1.530	resp	0	0	 0.000
 137.056	 1.463	jitter	0	0	 0.000
 138.519	 0.532	fixation_cross	0	0	 0.000
 139.051	 0.797	pres	1	0	 2147483.647
 139.848	 1.530	resp	0	0	 0.000
 141.378	 1.330	jitter	0	0	 0.000
 142.708	 0.532	fixation_cross	0	0	 0.000
 143.240	 0.798	pres	1	0	 2147483.647
 144.038	 1.530	resp	0	0	 0.000
 145.568	 1.130	jitter	0	0	 0.000
 146.698	 0.532	fixation_cross	0	0	 0.000
 147.230	 0.798	pres	1	0	 2147483.647
 148.028	 1.530	resp	0	0	 0.000
 149.558	 1.263	jitter	0	0	 0.000
 150.821	 0.532	fixation_cross	0	0	 0.000
 151.353	 0.798	pres	1	0	 2147483.647
 152.151	 1.530	resp	0	0	 0.000
 153.681	 1.330	jitter	0	0	 0.000
 155.011	 0.531	fixation_cross	0	0	 0.000
 155.542	 0.798	pres	1	0	 2147483.647
 156.340	 1.530	resp	0	0	 0.000
 157.870	 1.131	jitter	0	0	 0.000
 159.001	 0.532	fixation_cross	0	0	 0.000
 159.533	 0.798	pres	1	0	 2147483.647
 160.331	 1.529	resp	0	0	 0.000
 161.860	 1.463	jitter	0	0	 0.000
 163.323	 0.532	fixation_cross	0	0	 0.000
 163.855	 0.798	pres	1	0	 2147483.647
 164.653	 1.529	resp	0	0	 0.000
 166.182	 1.264	jitter	0	0	 0.000
 167.446	 0.532	fixation_cross	0	0	 0.000
 167.978	 0.798	pres	1	0	 2147483.647
 168.776	 1.530	resp	0	0	 0.000
 170.306	 1.263	jitter	0	0	 0.000
 171.569	 0.532	fixation_cross	0	0	 0.000
 172.101	 0.798	pres	1	0	 2147483.647
 172.899	 1.530	resp	0	0	 0.000
 174.429	 1.463	jitter	0	0	 0.000
 175.892	 0.531	fixation_cross	0	0	 0.000
 176.423	 0.798	pres	1	0	 2147483.647
 177.221	 1.530	resp	0	0	 0.000
 178.751	 1.131	jitter	0	0	 0.000
 179.882	 0.531	fixation_cross	0	0	 0.000
 180.413	 0.798	pres	1	0	 2147483.647
 181.211	 1.530	resp	0	0	 0.000
 182.741	 1.330	jitter	0	0	 0.000
 184.071	 0.532	fixation_cross	0	0	 0.000
 184.603	 0.798	pres	1	0	 2147483.647
 185.401	 1.529	resp	0	0	 0.000
 186.930	 1.131	jitter	0	0	 0.000
 188.061	 0.532	fixation_cross	0	0	 0.000
 188.593	 0.798	pres	1	0	 2147483.647
 189.391	 1.529	resp	0	0	 0.000
 190.920	 1.064	jitter	0	0	 0.000
 191.984	 0.532	fixation_cross	0	0	 0.000
 192.516	 0.798	pres	1	0	 2147483.647
 193.314	 1.530	resp	0	0	 0.000
 194.844	 1.330	jitter	0	0	 0.000
 196.174	 0.532	fixation_cross	0	0	 0.000
 196.706	 0.798	pres	1	0	 2147483.647
 197.504	 1.530	resp	0	0	 0.000
 199.034	 0.931	jitter	0	0	 0.000
 199.965	 0.532	fixation_cross	0	0	 0.000
 200.497	 0.798	pres	1	0	 2147483.647
 201.295	 1.529	resp	0	0	 0.000
 202.824	 1.263	jitter	0	0	 0.000
 204.087	 0.533	fixation_cross	0	0	 0.000
 204.620	 0.798	pres	1	0	 2147483.647
 205.418	 1.529	resp	0	0	 0.000
 206.947	 1.064	jitter	0	0	 0.000
 208.011	 0.532	fixation_cross	0	0	 0.000
 208.543	 0.798	pres	1	0	 2147483.647
 209.341	 1.529	resp	0	0	 0.000
 210.870	 1.064	jitter	0	0	 0.000
 211.934	 0.532	fixation_cross	0	0	 0.000
 212.466	 0.798	pres	1	0	 2147483.647
 213.264	 1.530	resp	0	0	 0.000
 214.794	 1.064	jitter	0	0	 0.000
 215.858	 0.532	fixation_cross	0	0	 0.000
 216.390	 0.798	pres	1	0	 2147483.647
 217.188	 1.529	resp	0	0	 0.000
 218.717	 1.264	jitter	0	0	 0.000
 219.981	 0.532	fixation_cross	0	0	 0.000
 220.513	 0.798	pres	1	0	 2147483.647
 221.311	 1.529	resp	0	0	 0.000
 222.840	 1.131	jitter	0	0	 0.000
 223.971	 0.532	fixation_cross	0	0	 0.000
 224.503	 0.798	pres	1	0	 2147483.647
 225.301	 1.529	resp	0	0	 0.000
 226.830	 0.932	jitter	0	0	 0.000
 227.762	 0.531	fixation_cross	0	0	 0.000
 228.293	 0.798	pres	1	0	 2147483.647
 229.091	 1.530	resp	0	0	 0.000
 230.621	 1.064	jitter	0	0	 0.000
 231.685	 0.532	fixation_cross	0	0	 0.000
 232.217	 0.798	pres	1	0	 2147483.647
 233.015	 1.529	resp	0	0	 0.000
 234.544	 0.932	jitter	0	0	 0.000
 235.476	 0.531	fixation_cross	0	0	 0.000
 236.007	 0.798	pres	1	0	 2147483.647
 236.805	 1.530	resp	0	0	 0.000
 238.335	 1.263	jitter	0	0	 0.000
 239.598	 0.533	fixation_cross	0	0	 0.000
 240.131	 0.797	pres	1	0	 2147483.647
 240.928	 1.530	resp	0	0	 0.000
 242.458	 1.130	jitter	0	0	 0.000
 243.588	 0.532	fixation_cross	0	0	 0.000
 244.120	 0.798	pres	1	0	 2147483.647
 244.918	 1.530	resp	0	0	 0.000
 246.448	 1.064	jitter	0	0	 0.000
 247.512	 0.532	fixation_cross	0	0	 0.000
 248.044	 0.798	pres	1	0	 2147483.647
 248.842	 1.529	resp	0	0	 0.000
 250.371	 1.064	jitter	0	0	 0.000
 251.435	 0.532	fixation_cross	0	0	 0.000
 251.967	 0.798	pres	1	0	 2147483.647
 252.765	 1.530	resp	0	0	 0.000
 254.295	 1.263	jitter	0	0	 0.000
 255.558	 0.532	fixation_cross	0	0	 0.000
 256.090	 0.798	pres	1	0	 2147483.647
 256.888	 1.530	resp	0	0	 0.000
 258.418	 1.064	jitter	0	0	 0.000
 259.482	 0.532	fixation_cross	0	0	 0.000
 260.014	 0.798	pres	1	0	 2147483.647
 260.812	 1.529	resp	0	0	 0.000
 262.341	 1.064	jitter	0	0	 0.000
 263.405	 0.532	fixation_cross	0	0	 0.000
 263.937	 0.798	pres	1	0	 2147483.647
 264.735	 1.530	resp	0	0	 0.000
 266.265	 1.130	jitter	0	0	 0.000
 267.395	 0.532	fixation_cross	0	0	 0.000
 267.927	 0.798	pres	1	0	 2147483.647
 268.725	 1.530	resp	0	0	 0.000
 270.255	 0.931	jitter	0	0	 0.000
 271.186	 0.532	fixation_cross	0	0	 0.000
 271.718	 0.798	pres	1	0	 2147483.647
 272.516	 1.529	resp	0	0	 0.000
 274.045	 1.264	jitter	0	0	 0.000
 275.309	 0.532	fixation_cross	0	0	 0.000
 275.841	 0.798	pres	1	0	 2147483.647
 276.639	 1.529	resp	0	0	 0.000
 278.168	 0.931	jitter	0	0	 0.000
 279.099	 0.532	fixation_cross	0	0	 0.000
 279.631	 0.798	pres	1	0	 2147483.647
 280.429	 1.530	resp	0	0	 0.000
 281.959	 1.130	jitter	0	0	 0.000
 283.089	 0.532	fixation_cross	0	0	 0.000
 283.621	 0.798	pres	1	0	 2147483.647
 284.419	 1.530	resp	0	0	 0.000
 285.949	 1.463	jitter	0	0	 0.000
 287.412	 0.532	fixation_cross	0	0	 0.000
 287.944	 0.798	pres	1	0	 2147483.647
 288.742	 1.529	resp	0	0	 0.000
 290.271	 1.463	jitter	0	0	 0.000
 291.734	 0.532	fixation_cross	0	0	 0.000
 292.266	 0.798	pres	1	0	 2147483.647
 293.064	 1.529	resp	0	0	 0.000
 294.593	 1.331	jitter	0	0	 0.000
 295.924	 0.532	fixation_cross	0	0	 0.000
 296.456	 0.798	pres	1	0	 2147483.647
 297.254	 1.529	resp	0	0	 0.000
 298.783	 1.463	jitter	0	0	 0.000
 300.246	 0.532	fixation_cross	0	0	 0.000
 300.778	 0.798	pres	1	0	 2147483.647
 301.576	 1.529	resp	0	0	 0.000
 303.105	 1.064	jitter	0	0	 0.000
 304.169	 0.532	fixation_cross	0	0	 0.000
 304.701	 0.798	pres	1	0	 2147483.647
 305.499	 1.530	resp	0	0	 0.000
 307.029	 0.931	jitter	0	0	 0.000
 307.960	 0.532	fixation_cross	0	0	 0.000
 308.492	 0.798	pres	1	0	 2147483.647
 309.290	 1.530	resp	0	0	 0.000
 310.820	 1.263	jitter	0	0	 0.000
 312.083	 0.532	fixation_cross	0	0	 0.000
 312.615	 0.798	pres	1	0	 2147483.647
 313.413	 1.529	resp	0	0	 0.000
 314.942	 1.330	jitter	0	0	 0.000
 316.272	 0.533	fixation_cross	0	0	 0.000
 316.805	 0.798	pres	1	0	 2147483.647
 317.603	 1.529	resp	0	0	 0.000
 319.132	 0.931	jitter	0	0	 0.000
 320.063	 0.532	fixation_cross	0	0	 0.000
 320.595	 0.798	pres	1	0	 2147483.647
 321.393	 1.530	resp	0	0	 0.000
 322.923	 0.931	jitter	0	0	 0.000
 323.854	 0.532	fixation_cross	0	0	 0.000
 324.386	 0.798	pres	1	0	 2147483.647
 325.184	 1.529	resp	0	0	 0.000
 326.713	 1.130	jitter	0	0	 0.000
 327.843	 0.533	fixation_cross	0	0	 0.000
 328.376	 0.798	pres	1	0	 2147483.647
 329.174	 1.529	resp	0	0	 0.000
 330.703	 1.463	jitter	0	0	 0.000
 332.166	 0.532	fixation_cross	0	0	 0.000
 332.698	 0.798	pres	1	0	 2147483.647
 333.496	 1.529	resp	0	0	 0.000
 335.025	 1.131	jitter	0	0	 0.000
 336.156	 0.532	fixation_cross	0	0	 0.000
 336.688	 0.798	pres	1	0	 2147483.647
 337.486	 1.529	resp	0	0	 0.000
 339.015	 1.264	jitter	0	0	 0.000
 340.279	 0.532	fixation_cross	0	0	 0.000
 340.811	 0.798	pres	1	0	 2147483.647
 341.609	 1.530	resp	0	0	 0.000
 343.139	 1.063	jitter	0	0	 0.000
 344.202	 0.533	fixation_cross	0	0	 0.000
 344.735	 0.797	pres	1	0	 2147483.647
 345.532	 1.530	resp	0	0	 0.000
 347.062	 1.463	jitter	0	0	 0.000
 348.525	 0.532	fixation_cross	0	0	 0.000
 349.057	 0.798	pres	1	0	 2147483.647
 349.855	 1.529	resp	0	0	 0.000
 351.384	 1.264	jitter	0	0	 0.000
 352.648	 0.532	fixation_cross	0	0	 0.000
 353.180	 0.798	pres	1	0	 2147483.647
 353.978	 1.530	resp	0	0	 0.000
 355.508	 1.063	jitter	0	0	 0.000
 356.571	 0.532	fixation_cross	0	0	 0.000
 357.103	 0.798	pres	1	0	 2147483.647
 357.901	 1.530	resp	0	0	 0.000
 359.431	 1.130	jitter	0	0	 0.000
 360.561	 0.532	fixation_cross	0	0	 0.000
 361.093	 0.798	pres	1	0	 2147483.647
 361.891	 1.530	resp	0	0	 0.000
 363.421	 1.463	jitter	0	0	 0.000
 364.884	 0.532	fixation_cross	0	0	 0.000
 365.416	 0.798	pres	1	0	 2147483.647
 366.214	 1.529	resp	0	0	 0.000
 367.743	 11.305	jitter	0	0	 0.000
