onset	duration	trial_type	expected_response	given_response	response_time
 0.000	 1.995	instruction	0	0	 0.000
 1.995	 1.995	filler	0	0	 0.000
 3.990	 0.532	fixation_cross	0	0	 0.000
 4.522	 0.798	pres	1	0	 2147483.647
 5.320	 1.529	resp	0	0	 0.000
 6.849	 1.064	jitter	0	0	 0.000
 7.913	 0.532	fixation_cross	0	0	 0.000
 8.445	 0.798	pres	1	0	 2147483.647
 9.243	 1.530	resp	0	0	 0.000
 10.773	 0.931	jitter	0	0	 0.000
 11.704	 0.532	fixation_cross	0	0	 0.000
 12.236	 0.798	pres	1	0	 2147483.647
 13.034	 1.529	resp	0	0	 0.000
 14.563	 1.131	jitter	0	0	 0.000
 15.694	 0.532	fixation_cross	0	0	 0.000
 16.226	 0.798	pres	1	0	 2147483.647
 17.024	 1.529	resp	0	0	 0.000
 18.553	 1.264	jitter	0	0	 0.000
 19.817	 0.532	fixation_cross	0	0	 0.000
 20.349	 0.798	pres	1	0	 2147483.647
 21.147	 1.530	resp	0	0	 0.000
 22.677	 1.130	jitter	0	0	 0.000
 23.807	 0.532	fixation_cross	0	0	 0.000
 24.339	 0.798	pres	1	0	 2147483.647
 25.137	 1.530	resp	0	0	 0.000
 26.667	 1.130	jitter	0	0	 0.000
 27.797	 0.532	fixation_cross	0	0	 0.000
 28.329	 0.798	pres	1	0	 2147483.647
 29.127	 1.529	resp	0	0	 0.000
 30.656	 1.264	jitter	0	0	 0.000
 31.920	 0.532	fixation_cross	0	0	 0.000
 32.452	 0.798	pres	1	0	 2147483.647
 33.250	 1.529	resp	0	0	 0.000
 34.779	 0.931	jitter	0	0	 0.000
 35.710	 0.532	fixation_cross	0	0	 0.000
 36.242	 0.798	pres	1	0	 2147483.647
 37.040	 1.530	resp	0	0	 0.000
 38.570	 1.463	jitter	0	0	 0.000
 40.033	 0.532	fixation_cross	0	0	 0.000
 40.565	 0.798	pres	1	0	 2147483.647
 41.363	 1.530	resp	0	0	 0.000
 42.893	 0.930	jitter	0	0	 0.000
 43.823	 0.533	fixation_cross	0	0	 0.000
 44.356	 0.797	pres	1	0	 2147483.647
 45.153	 1.530	resp	0	0	 0.000
 46.683	 1.130	jitter	0	0	 0.000
 47.813	 0.533	fixation_cross	0	0	 0.000
 48.346	 0.798	pres	1	0	 2147483.647
 49.144	 1.529	resp	0	0	 0.000
 50.673	 1.330	jitter	0	0	 0.000
 52.003	 0.532	fixation_cross	0	0	 0.000
 52.535	 0.798	pres	1	0	 2147483.647
 53.333	 1.529	resp	0	0	 0.000
 54.862	 1.463	jitter	0	0	 0.000
 56.325	 0.533	fixation_cross	0	0	 0.000
 56.858	 0.798	pres	1	0	 2147483.647
 57.656	 1.529	resp	0	0	 0.000
 59.185	 0.931	jitter	0	0	 0.000
 60.116	 0.532	fixation_cross	0	0	 0.000
 60.648	 0.798	pres	1	0	 2147483.647
 61.446	 1.530	resp	0	0	 0.000
 62.976	 1.063	jitter	0	0	 0.000
 64.039	 0.533	fixation_cross	0	0	 0.000
 64.572	 0.798	pres	1	0	 2147483.647
 65.370	 1.529	resp	0	0	 0.000
 66.899	 1.330	jitter	0	0	 0.000
 68.229	 0.532	fixation_cross	0	0	 0.000
 68.761	 0.798	pres	1	0	 2147483.647
 69.559	 1.529	resp	0	0	 0.000
 71.088	 0.931	jitter	0	0	 0.000
 72.019	 0.532	fixation_cross	0	0	 0.000
 72.551	 0.798	pres	1	0	 2147483.647
 73.349	 1.530	resp	0	0	 0.000
 74.879	 1.263	jitter	0	0	 0.000
 76.142	 0.532	fixation_cross	0	0	 0.000
 76.674	 0.798	pres	1	0	 2147483.647
 77.472	 1.530	resp	0	0	 0.000
 79.002	 1.064	jitter	0	0	 0.000
 80.066	 0.532	fixation_cross	0	0	 0.000
 80.598	 0.798	pres	1	0	 2147483.647
 81.396	 1.529	resp	0	0	 0.000
 82.925	 1.463	jitter	0	0	 0.000
 84.388	 0.532	fixation_cross	0	0	 0.000
 84.920	 0.798	pres	1	0	 2147483.647
 85.718	 1.530	resp	0	0	 0.000
 87.248	 1.330	jitter	0	0	 0.000
 88.578	 0.532	fixation_cross	0	0	 0.000
 89.110	 0.798	pres	1	0	 2147483.647
 89.908	 1.529	resp	0	0	 0.000
 91.437	 1.330	jitter	0	0	 0.000
 92.767	 0.532	fixation_cross	0	0	 0.000
 93.299	 0.798	pres	1	0	 2147483.647
 94.097	 1.530	resp	0	0	 0.000
 95.627	 1.064	jitter	0	0	 0.000
 96.691	 0.532	fixation_cross	0	0	 0.000
 97.223	 0.798	pres	1	0	 2147483.647
 98.021	 1.529	resp	0	0	 0.000
 99.550	 1.264	jitter	0	0	 0.000
 100.814	 0.532	fixation_cross	0	0	 0.000
 101.346	 0.797	pres	1	0	 2147483.647
 102.143	 1.530	resp	0	0	 0.000
 103.673	 0.931	jitter	0	0	 0.000
 104.604	 0.532	fixation_cross	0	0	 0.000
 105.136	 0.798	pres	1	0	 2147483.647
 105.934	 1.530	resp	0	0	 0.000
 107.464	 1.463	jitter	0	0	 0.000
 108.927	 0.532	fixation_cross	0	0	 0.000
 109.459	 0.798	pres	1	0	 2147483.647
 110.257	 1.529	resp	0	0	 0.000
 111.786	 1.463	jitter	0	0	 0.000
 113.249	 0.532	fixation_cross	0	0	 0.000
 113.781	 0.798	pres	1	0	 2147483.647
 114.579	 1.529	resp	0	0	 0.000
 116.108	 1.065	jitter	0	0	 0.000
 117.173	 0.532	fixation_cross	0	0	 0.000
 117.705	 0.798	pres	1	0	 2147483.647
 118.503	 1.529	resp	0	0	 0.000
 120.032	 0.931	jitter	0	0	 0.000
 120.963	 0.532	fixation_cross	0	0	 0.000
 121.495	 0.798	pres	1	0	 2147483.647
 122.293	 1.529	resp	0	0	 0.000
 123.822	 1.464	jitter	0	0	 0.000
 125.286	 0.532	fixation_cross	0	0	 0.000
 125.818	 0.798	pres	1	0	 2147483.647
 126.616	 1.529	resp	0	0	 0.000
 128.145	 1.264	jitter	0	0	 0.000
 129.409	 0.532	fixation_cross	0	0	 0.000
 129.941	 0.797	pres	1	0	 2147483.647
 130.738	 1.530	resp	0	0	 0.000
 132.268	 1.064	jitter	0	0	 0.000
 133.332	 0.532	fixation_cross	0	0	 0.000
 133.864	 0.798	pres	1	0	 2147483.647
 134.662	 1.529	resp	0	0	 0.000
 136.191	 1.264	jitter	0	0	 0.000
 137.455	 0.532	fixation_cross	0	0	 0.000
 137.987	 0.798	pres	1	0	 2147483.647
 138.785	 1.530	resp	0	0	 0.000
 140.315	 0.931	jitter	0	0	 0.000
 141.246	 0.532	fixation_cross	0	0	 0.000
 141.778	 0.798	pres	1	0	 2147483.647
 142.576	 1.529	resp	0	0	 0.000
 144.105	 1.330	jitter	0	0	 0.000
 145.435	 0.532	fixation_cross	0	0	 0.000
 145.967	 0.798	pres	1	0	 2147483.647
 146.765	 1.530	resp	0	0	 0.000
 148.295	 1.130	jitter	0	0	 0.000
 149.425	 0.532	fixation_cross	0	0	 0.000
 149.957	 0.798	pres	1	0	 2147483.647
 150.755	 1.530	resp	0	0	 0.000
 152.285	 1.330	jitter	0	0	 0.000
 153.615	 0.532	fixation_cross	0	0	 0.000
 154.147	 0.798	pres	1	0	 2147483.647
 154.945	 1.529	resp	0	0	 0.000
 156.474	 1.463	jitter	0	0	 0.000
 157.937	 0.532	fixation_cross	0	0	 0.000
 158.469	 0.798	pres	1	0	 2147483.647
 159.267	 1.530	resp	0	0	 0.000
 160.797	 0.930	jitter	0	0	 0.000
 161.727	 0.533	fixation_cross	0	0	 0.000
 162.260	 0.798	pres	1	0	 2147483.647
 163.058	 1.529	resp	0	0	 0.000
 164.587	 1.330	jitter	0	0	 0.000
 165.917	 0.532	fixation_cross	0	0	 0.000
 166.449	 0.798	pres	1	0	 2147483.647
 167.247	 1.529	resp	0	0	 0.000
 168.776	 1.131	jitter	0	0	 0.000
 169.907	 0.532	fixation_cross	0	0	 0.000
 170.439	 0.798	pres	1	0	 2147483.647
 171.237	 1.530	resp	0	0	 0.000
 172.767	 1.462	jitter	0	0	 0.000
 174.229	 0.533	fixation_cross	0	0	 0.000
 174.762	 0.797	pres	1	0	 2147483.647
 175.559	 1.530	resp	0	0	 0.000
 177.089	 0.931	jitter	0	0	 0.000
 178.020	 0.532	fixation_cross	0	0	 0.000
 178.552	 0.798	pres	1	0	 2147483.647
 179.350	 1.530	resp	0	0	 0.000
 180.880	 1.463	jitter	0	0	 0.000
 182.343	 0.532	fixation_cross	0	0	 0.000
 182.875	 0.798	pres	1	0	 2147483.647
 183.673	 1.529	resp	0	0	 0.000
 185.202	 1.131	jitter	0	0	 0.000
 186.333	 0.532	fixation_cross	0	0	 0.000
 186.865	 0.798	pres	1	0	 2147483.647
 187.663	 1.529	resp	0	0	 0.000
 189.192	 1.263	jitter	0	0	 0.000
 190.455	 0.533	fixation_cross	0	0	 0.000
 190.988	 0.797	pres	1	0	 2147483.647
 191.785	 1.530	resp	0	0	 0.000
 193.315	 1.064	jitter	0	0	 0.000
 194.379	 0.532	fixation_cross	0	0	 0.000
 194.911	 0.798	pres	1	0	 2147483.647
 195.709	 1.529	resp	0	0	 0.000
 197.238	 1.131	jitter	0	0	 0.000
 198.369	 0.532	fixation_cross	0	0	 0.000
 198.901	 0.798	pres	1	0	 2147483.647
 199.699	 1.529	resp	0	0	 0.000
 201.228	 1.331	jitter	0	0	 0.000
 202.559	 0.532	fixation_cross	0	0	 0.000
 203.091	 0.798	pres	1	0	 2147483.647
 203.889	 1.529	resp	0	0	 0.000
 205.418	 1.064	jitter	0	0	 0.000
 206.482	 0.532	fixation_cross	0	0	 0.000
 207.014	 0.798	pres	1	0	 2147483.647
 207.812	 1.530	resp	0	0	 0.000
 209.342	 1.330	jitter	0	0	 0.000
 210.672	 0.531	fixation_cross	0	0	 0.000
 211.203	 0.798	pres	1	0	 2147483.647
 212.001	 1.530	resp	0	0	 0.000
 213.531	 1.064	jitter	0	0	 0.000
 214.595	 0.532	fixation_cross	0	0	 0.000
 215.127	 0.798	pres	1	0	 2147483.647
 215.925	 1.529	resp	0	0	 0.000
 217.454	 1.065	jitter	0	0	 0.000
 218.519	 0.531	fixation_cross	0	0	 0.000
 219.050	 0.798	pres	1	0	 2147483.647
 219.848	 1.530	resp	0	0	 0.000
 221.378	 1.264	jitter	0	0	 0.000
 222.642	 0.532	fixation_cross	0	0	 0.000
 223.174	 0.798	pres	1	0	 2147483.647
 223.972	 1.529	resp	0	0	 0.000
 225.501	 1.064	jitter	0	0	 0.000
 226.565	 0.532	fixation_cross	0	0	 0.000
 227.097	 0.798	pres	1	0	 2147483.647
 227.895	 1.530	resp	0	0	 0.000
 229.425	 1.462	jitter	0	0	 0.000
 230.887	 0.532	fixation_cross	0	0	 0.000
 231.419	 0.798	pres	1	0	 2147483.647
 232.217	 1.530	resp	0	0	 0.000
 233.747	 1.064	jitter	0	0	 0.000
 234.811	 0.532	fixation_cross	0	0	 0.000
 235.343	 0.798	pres	1	0	 2147483.647
 236.141	 1.529	resp	0	0	 0.000
 237.670	 0.931	jitter	0	0	 0.000
 238.601	 0.532	fixation_cross	0	0	 0.000
 239.133	 0.798	pres	1	0	 2147483.647
 239.931	 1.530	resp	0	0	 0.000
 241.461	 1.264	jitter	0	0	 0.000
 242.725	 0.531	fixation_cross	0	0	 0.000
 243.256	 0.798	pres	1	0	 2147483.647
 244.054	 1.530	resp	0	0	 0.000
 245.584	 1.130	jitter	0	0	 0.000
 246.714	 0.533	fixation_cross	0	0	 0.000
 247.247	 0.798	pres	1	0	 2147483.647
 248.045	 1.529	resp	0	0	 0.000
 249.574	 1.463	jitter	0	0	 0.000
 251.037	 0.532	fixation_cross	0	0	 0.000
 251.569	 0.798	pres	1	0	 2147483.647
 252.367	 1.529	resp	0	0	 0.000
 253.896	 1.131	jitter	0	0	 0.000
 255.027	 0.532	fixation_cross	0	0	 0.000
 255.559	 0.798	pres	1	0	 2147483.647
 256.357	 1.529	resp	0	0	 0.000
 257.886	 1.330	jitter	0	0	 0.000
 259.216	 0.533	fixation_cross	0	0	 0.000
 259.749	 0.798	pres	1	0	 2147483.647
 260.547	 1.529	resp	0	0	 0.000
 262.076	 1.463	jitter	0	0	 0.000
 263.539	 0.532	fixation_cross	0	0	 0.000
 264.071	 0.798	pres	1	0	 2147483.647
 264.869	 1.529	resp	0	0	 0.000
 266.398	 1.264	jitter	0	0	 0.000
 267.662	 0.532	fixation_cross	0	0	 0.000
 268.194	 0.798	pres	1	0	 2147483.647
 268.992	 1.530	resp	0	0	 0.000
 270.522	 1.462	jitter	0	0	 0.000
 271.984	 0.532	fixation_cross	0	0	 0.000
 272.516	 0.798	pres	1	0	 2147483.647
 273.314	 1.530	resp	0	0	 0.000
 274.844	 1.131	jitter	0	0	 0.000
 275.975	 0.531	fixation_cross	0	0	 0.000
 276.506	 0.798	pres	1	0	 2147483.647
 277.304	 1.530	resp	0	0	 0.000
 278.834	 1.130	jitter	0	0	 0.000
 279.964	 0.533	fixation_cross	0	0	 0.000
 280.497	 0.798	pres	1	0	 2147483.647
 281.295	 1.529	resp	0	0	 0.000
 282.824	 1.330	jitter	0	0	 0.000
 284.154	 0.532	fixation_cross	0	0	 0.000
 284.686	 0.798	pres	1	0	 2147483.647
 285.484	 1.529	resp	0	0	 0.000
 287.013	 1.064	jitter	0	0	 0.000
 288.077	 0.532	fixation_cross	0	0	 0.000
 288.609	 0.798	pres	1	0	 2147483.647
 289.407	 1.530	resp	0	0	 0.000
 290.937	 1.130	jitter	0	0	 0.000
 292.067	 0.532	fixation_cross	0	0	 0.000
 292.599	 0.798	pres	1	0	 2147483.647
 293.397	 1.530	resp	0	0	 0.000
 294.927	 1.263	jitter	0	0	 0.000
 296.190	 0.532	fixation_cross	0	0	 0.000
 296.722	 0.798	pres	1	0	 2147483.647
 297.520	 1.530	resp	0	0	 0.000
 299.050	 1.263	jitter	0	0	 0.000
 300.313	 0.532	fixation_cross	0	0	 0.000
 300.845	 0.798	pres	1	0	 2147483.647
 301.643	 1.530	resp	0	0	 0.000
 303.173	 1.063	jitter	0	0	 0.000
 304.236	 0.533	fixation_cross	0	0	 0.000
 304.769	 0.798	pres	1	0	 2147483.647
 305.567	 1.529	resp	0	0	 0.000
 307.096	 1.131	jitter	0	0	 0.000
 308.227	 0.532	fixation_cross	0	0	 0.000
 308.759	 0.798	pres	1	0	 2147483.647
 309.557	 1.529	resp	0	0	 0.000
 311.086	 1.264	jitter	0	0	 0.000
 312.350	 0.532	fixation_cross	0	0	 0.000
 312.882	 0.798	pres	1	0	 2147483.647
 313.680	 1.529	resp	0	0	 0.000
 315.209	 1.264	jitter	0	0	 0.000
 316.473	 0.532	fixation_cross	0	0	 0.000
 317.005	 0.798	pres	1	0	 2147483.647
 317.803	 1.529	resp	0	0	 0.000
 319.332	 1.330	jitter	0	0	 0.000
 320.662	 0.532	fixation_cross	0	0	 0.000
 321.194	 0.798	pres	1	0	 2147483.647
 321.992	 1.530	resp	0	0	 0.000
 323.522	 1.130	jitter	0	0	 0.000
 324.652	 0.532	fixation_cross	0	0	 0.000
 325.184	 0.798	pres	1	0	 2147483.647
 325.982	 1.530	resp	0	0	 0.000
 327.512	 0.931	jitter	0	0	 0.000
 328.443	 0.531	fixation_cross	0	0	 0.000
 328.974	 0.799	pres	1	0	 2147483.647
 329.773	 1.529	resp	0	0	 0.000
 331.302	 0.931	jitter	0	0	 0.000
 332.233	 0.532	fixation_cross	0	0	 0.000
 332.765	 0.798	pres	1	0	 2147483.647
 333.563	 1.530	resp	0	0	 0.000
 335.093	 1.330	jitter	0	0	 0.000
 336.423	 0.532	fixation_cross	0	0	 0.000
 336.955	 0.798	pres	1	0	 2147483.647
 337.753	 1.529	resp	0	0	 0.000
 339.282	 0.931	jitter	0	0	 0.000
 340.213	 0.532	fixation_cross	0	0	 0.000
 340.745	 0.798	pres	1	0	 2147483.647
 341.543	 1.530	resp	0	0	 0.000
 343.073	 1.064	jitter	0	0	 0.000
 344.137	 0.532	fixation_cross	0	0	 0.000
 344.669	 0.798	pres	1	0	 2147483.647
 345.467	 1.529	resp	0	0	 0.000
 346.996	 1.264	jitter	0	0	 0.000
 348.260	 0.532	fixation_cross	0	0	 0.000
 348.792	 0.798	pres	1	0	 2147483.647
 349.590	 1.529	resp	0	0	 0.000
 351.119	 0.931	jitter	0	0	 0.000
 352.050	 0.532	fixation_cross	0	0	 0.000
 352.582	 0.798	pres	1	0	 2147483.647
 353.380	 1.530	resp	0	0	 0.000
 354.910	 1.463	jitter	0	0	 0.000
 356.373	 0.531	fixation_cross	0	0	 0.000
 356.904	 0.799	pres	1	0	 2147483.647
 357.703	 1.529	resp	0	0	 0.000
 359.232	 1.463	jitter	0	0	 0.000
 360.695	 0.532	fixation_cross	0	0	 0.000
 361.227	 0.798	pres	1	0	 2147483.647
 362.025	 1.530	resp	0	0	 0.000
 363.555	 1.330	jitter	0	0	 0.000
 364.885	 0.532	fixation_cross	0	0	 0.000
 365.417	 0.798	pres	1	0	 2147483.647
 366.215	 1.529	resp	0	0	 0.000
 367.744	 11.305	jitter	0	0	 0.000
